"Time (s)","Acceleration x (m/s^2)","Acceleration y (m/s^2)","Acceleration z (m/s^2)"
1.434136000E-2,6.423499107E0,7.168478966E0,2.063830614E0
3.433354700E-2,6.512831688E0,7.169628143E0,2.116866827E0
5.433042200E-2,6.420070648E0,7.112100124E0,1.919891119E0
7.433042200E-2,6.385488987E0,7.086568356E0,1.819995403E0
9.433198500E-2,6.381160259E0,7.113728523E0,1.944972754E0
1.143304220E-1,6.361259460E0,7.134471893E0,1.923491955E0
1.343319850E-1,6.419936657E0,7.124483109E0,1.898917913E0
1.543319850E-1,6.414353371E0,7.125622749E0,1.906617641E0
1.743304220E-1,6.435929775E0,7.134031296E0,1.956369162E0
1.943304220E-1,6.398321629E0,7.121811390E0,1.922026753E0
2.143304220E-1,6.415349483E0,7.101891518E0,1.922630072E0
2.343319850E-1,6.435317039E0,7.120911121E0,1.886075377E0
2.543304220E-1,6.369342327E0,7.148024082E0,1.908839464E0
2.743304220E-1,6.378545761E0,7.157350540E0,1.926556587E0
2.943304220E-1,6.326074600E0,7.161717892E0,1.910199404E0
3.143304220E-1,6.340229034E0,7.159955502E0,1.916615844E0
3.343304220E-1,6.394653797E0,7.149804115E0,1.912967086E0
3.543304220E-1,6.359392166E0,7.139844418E0,1.900833249E0
3.743319850E-1,6.309353352E0,7.136837482E0,1.931048036E0
3.943304220E-1,6.332031250E0,7.122060299E0,1.901915431E0
4.143304220E-1,6.389511108E0,7.168565273E0,1.905027866E0
4.343304220E-1,6.343207359E0,7.222635746E0,1.943038225E0
4.543304220E-1,6.259659290E0,7.277798176E0,1.865360737E0
4.743304220E-1,6.297631264E0,7.220845222E0,1.904309630E0
4.943288600E-1,6.299978733E0,7.212570667E0,1.874468327E0
5.143319850E-1,6.398206711E0,7.236503124E0,1.894359350E0
5.343304220E-1,6.366344929E0,7.177203655E0,1.837607145E0
5.543304220E-1,6.274196625E0,7.151173592E0,1.849128127E0
5.743288600E-1,6.339415073E0,7.154640675E0,1.914556861E0
5.943319850E-1,6.438055992E0,7.185967445E0,1.922486424E0
6.143304220E-1,6.340928078E0,7.218105793E0,1.905679107E0
6.343304220E-1,6.283993721E0,7.140294552E0,1.889149547E0
6.543319850E-1,6.259486675E0,7.129702568E0,1.685795665E0
6.743319850E-1,6.564259052E0,6.964454651E0,2.235082865E0
6.943304220E-1,6.566653252E0,7.048558235E0,1.847480893E0
7.143304220E-1,6.505447865E0,7.160089970E0,1.919967771E0
7.343319850E-1,6.409469128E0,7.134931564E0,2.100701332E0
7.543304220E-1,6.304670334E0,7.205148697E0,1.918684483E0
7.743304220E-1,6.340324879E0,7.228803158E0,1.718021631E0
7.943304220E-1,6.688556671E0,7.118526459E0,1.885328412E0
8.143319850E-1,6.445745945E0,7.085323811E0,1.738975644E0
8.343304220E-1,6.227643967E0,7.276668072E0,1.846149683E0
8.543304220E-1,6.120125294E0,7.363904476E0,2.149437666E0
8.743319850E-1,5.987572670E0,7.492031574E0,2.042033672E0
8.943304220E-1,5.556798458E0,7.635195255E0,1.949684501E0
9.143304220E-1,6.125411510E0,7.513272762E0,1.690315962E0
9.343304220E-1,6.295821190E0,7.353857040E0,1.497889161E0
9.543319850E-1,5.731728077E0,7.419410706E0,2.072746515E0
9.743304220E-1,5.962069511E0,7.302468300E0,2.428917408E0
9.943288600E-1,6.221179485E0,7.262379646E0,2.069902182E0
1.014331985E0,6.289883614E0,7.250849247E0,1.893353820E0
1.034330422E0,7.003796101E0,7.329637527E0,1.568498969E0
1.054330422E0,6.327759743E0,7.483623028E0,1.420106292E0
1.074330422E0,5.998164654E0,7.286378860E0,2.489586592E0
1.094331985E0,5.600142956E0,7.458848000E0,2.049101353E0
1.114330422E0,5.267205238E0,7.619575500E0,1.672435999E0
1.134330422E0,5.053259373E0,7.954073906E0,1.690861821E0
1.154331985E0,5.222443104E0,8.225270271E0,1.464274526E0
1.174330422E0,5.331743240E0,7.878637314E0,2.008888483E0
1.194330422E0,5.680349827E0,7.673665047E0,1.906962395E0
1.214330422E0,5.837752819E0,7.873858929E0,1.716479778E0
1.234331985E0,5.171149731E0,8.061344147E0,1.706634760E0
1.254330422E0,5.099907875E0,7.772095680E0,1.743744969E0
1.274330422E0,5.842512608E0,7.564805508E0,1.668327570E0
1.294330422E0,6.791296482E0,7.923217773E0,1.261112213E0
1.314331985E0,6.383516312E0,7.782744884E0,1.648982406E0
1.334330422E0,5.821376801E0,7.645020962E0,1.908820271E0
1.354330422E0,6.622581959E0,7.427349567E0,1.727991104E0
1.374331985E0,7.099525928E0,7.751064777E0,1.645295382E0
1.394330422E0,6.162981510E0,7.731327057E0,1.856415987E0
1.414330422E0,6.056334019E0,7.104869843E0,7.399806976E-1
1.434328860E0,7.779182434E0,5.202323437E0,5.438476801E-1
1.454331985E0,1.008860016E1,2.904923201E0,2.450532436E0
1.474330422E0,2.155030489E0,8.567822456E0,-1.384997815E-1
1.494328860E0,-6.985284328E0,1.595640659E1,-3.089659691E0
1.514331985E0,4.535000920E-1,1.040846539E1,5.240983963E0
1.534330422E0,3.231003761E0,8.231054306E0,9.930956960E-1
1.554330422E0,2.141383410E0,8.693634987E0,4.976491630E-1
1.574328860E0,2.578306198E0,8.720295906E0,2.694951534E0
1.594331985E0,3.106898069E0,9.118068695E0,1.288597584E0
1.614330422E0,3.354745626E0,9.039902687E0,1.333627701E0
1.634330422E0,3.487422705E0,8.916897774E0,1.323677421E0
1.654331985E0,3.428429604E0,9.380185127E0,1.184478521E0
1.674331985E0,3.439174891E0,9.680925369E0,8.755787015E-1
1.694330422E0,2.958677769E0,9.738663673E0,5.906112194E-1
1.714330422E0,2.148087263E0,9.793050766E0,3.305530548E-1
1.734331985E0,1.978434086E0,9.386409760E0,9.527006745E-2
1.754330422E0,2.812152624E0,8.258607864E0,-1.276875585E-1
1.774330422E0,3.922123671E0,7.393936157E0,2.815724850E0
1.794330422E0,4.937427998E0,8.741182327E0,2.748150826E0
1.814331985E0,4.813504219E0,9.062129974E0,-4.368077219E-1
1.834330422E0,5.291874886E0,9.384025574E0,5.644761324E-1
1.854330422E0,5.134030342E0,9.251338959E0,1.573842764E0
1.874331985E0,4.266898155E0,9.107446671E0,-1.708310694E-1
1.894330422E0,3.524973392E0,8.936769485E0,1.162815839E-1
1.914330422E0,3.655256271E0,9.098666191E0,1.107308626E0
1.934328860E0,3.390007496E0,9.324380875E0,4.029441178E-1
1.954331985E0,3.314714670E0,8.712759018E0,6.530328393E-1
1.974330422E0,3.124959707E0,9.174629211E0,6.473921239E-2
1.994328860E0,3.691763163E0,8.996730804E0,4.898536578E-2
2.014331985E0,3.722600460E0,9.004620552E0,7.259219140E-2
2.034330422E0,3.981691360E0,9.039318085E0,1.991209537E-1
2.054330422E0,4.237411022E0,8.780992508E0,-1.591282189E-1
2.074330422E0,4.073111534E0,8.671098709E0,7.544608414E-2
2.094331985E0,3.597450733E0,9.077864647E0,-5.341942608E-2
2.114330422E0,3.394661903E0,9.377704620E0,-1.907795668E-1
2.134330422E0,3.110786200E0,9.520360947E0,-1.534300148E-1
2.154331985E0,2.790394068E0,9.774940491E0,-3.947751224E-1
2.174331985E0,2.611154556E0,9.854811668E0,2.396883070E-1
2.194330422E0,3.278198242E0,9.460986137E0,9.937851876E-2
2.214330422E0,3.721163988E0,9.300879478E0,4.007414579E-1
2.234331985E0,3.594079733E0,9.212638855E0,-1.147588715E-1
2.254330422E0,3.477309704E0,9.082700729E0,-2.993135154E-1
2.274330422E0,3.219176531E0,9.368922234E0,3.341060579E-1
2.294330422E0,3.251306534E0,9.561924934E0,2.242600769E-1
2.314331985E0,3.465338707E0,9.609980583E0,1.524914950E-1
2.334330422E0,3.600065231E0,9.619289398E0,-1.884907037E-1
2.354330422E0,3.557323933E0,1.006526279E1,-1.885673255E-1
2.374331985E0,3.678815365E0,1.003197384E1,-3.117346168E-1
2.394330422E0,3.859156132E0,1.008014584E1,-8.210196346E-2
2.414330422E0,3.511575460E0,9.770478249E0,1.895250008E-2
2.434330422E0,3.183273077E0,9.442759514E0,2.883576415E-2
2.454331985E0,3.405933619E0,8.862185478E0,-1.770176888E-1
2.474330422E0,4.030858517E0,8.317752838E0,-2.144342661E-1
2.494328860E0,4.845346928E0,8.475407600E0,1.380400807E-1
2.514331985E0,4.821931839E0,9.098186493E0,3.495534360E-1
2.534330422E0,4.513893604E0,9.606446266E0,3.627406955E-1
2.554330422E0,3.403213978E0,9.624958992E0,-3.195780143E-2
2.574330422E0,3.143261194E0,9.063039780E0,7.300399244E-2
2.594331985E0,2.611872911E0,8.889565468E0,1.136958450E-1
2.614330422E0,2.232851505E0,8.996585846E0,3.816261590E-1
2.634330422E0,1.829150915E0,9.045207024E0,4.780167043E-1
2.654331985E0,1.800880194E0,8.915892601E0,3.173466325E-1
2.674331985E0,1.849195123E0,9.036943436E0,5.088157058E-1
2.694330422E0,1.740996361E0,9.307248116E0,4.153748155E-1
2.714330422E0,1.417577982E0,9.465535164E0,2.225649804E-1
2.734331985E0,1.354304075E0,9.529698372E0,5.835148320E-2
2.754330422E0,1.344621897E0,9.612480164E0,-1.242590621E-1
2.774330422E0,1.091765523E0,9.725726128E0,3.418919817E-2
2.794330422E0,9.421470761E-1,9.676472664E0,3.601549566E-1
2.814331985E0,9.505076408E-1,9.681059837E0,4.980418086E-1
2.834330422E0,1.244333625E0,9.798796654E0,7.056956887E-1
2.854330422E0,1.740077019E0,9.799332619E0,5.182105899E-1
2.874331985E0,1.588246346E0,1.007619953E1,5.634705424E-1
2.894330422E0,1.288262367E0,1.016196918E1,6.505237222E-1
2.914330422E0,1.016549230E0,9.820030212E0,6.462811828E-1
2.934330422E0,8.271200657E-1,9.350985527E0,7.297717929E-1
2.954331985E0,6.978906393E-1,9.313186646E0,6.486562490E-1
2.974330422E0,6.293685436E-1,9.647025108E0,4.979077280E-1
2.994328860E0,5.156248212E-1,9.930459023E0,5.689389110E-1
3.014331985E0,8.115194440E-1,1.008818913E1,7.084538341E-1
3.034330422E0,1.178713322E0,1.001237869E1,5.113631487E-1
3.054330422E0,1.351976871E0,9.808575630E0,7.625436187E-1
3.074330422E0,1.568307400E0,9.725342751E0,7.536851168E-1
3.094331985E0,1.904845953E0,9.681164742E0,7.774260044E-1
3.114372610E0,2.223131180E0,9.640703201E0,1.089074373E0
3.134330422E0,2.504354000E0,9.512441635E0,1.253785968E0
3.154330422E0,2.839637995E0,9.256415367E0,1.240253925E0
3.174331985E0,3.020467281E0,9.180250168E0,1.299486399E0
3.194330422E0,2.925503731E0,9.352268219E0,1.378121614E0
3.214330422E0,2.692289352E0,9.140228271E0,1.258631825E0
3.234331985E0,2.252570152E0,8.792255402E0,1.684617758E0
3.254330422E0,2.042895555E0,8.648259163E0,1.688611269E0
3.274330422E0,2.133760452E0,8.901920319E0,1.719850779E0
3.294330422E0,2.146440029E0,9.270836830E0,1.790019989E0
3.314331985E0,2.114702463E0,9.194683075E0,8.708764911E-1
3.334330422E0,2.028808117E0,9.001480103E0,1.380860567E0
3.354330422E0,2.245378017E0,9.255753517E0,1.359427691E0
3.374331985E0,2.714823484E0,9.865777016E0,1.425996065E0
3.394330422E0,3.080264807E0,1.010156918E1,1.196622014E0
3.414330422E0,3.252158880E0,9.882431984E0,1.272901177E0
3.434330422E0,3.098163843E0,9.940600395E0,1.109903932E0
3.454331985E0,3.144477367E0,9.938924789E0,1.338377833E0
3.474330422E0,2.978635788E0,9.682591438E0,1.511861682E0
3.494328860E0,2.661087990E0,9.586326599E0,1.616852283E0
3.514331985E0,2.749769211E0,9.512029648E0,1.640497327E0
3.534330422E0,2.832464933E0,9.410782814E0,1.597574115E0
3.554330422E0,2.838699579E0,9.213425636E0,1.610837936E0
3.574330422E0,2.703513384E0,9.130557060E0,1.497304916E0
3.594331985E0,3.055958986E0,8.898588181E0,1.519906163E0
3.614330422E0,3.466439962E0,8.536679268E0,1.630872726E0
3.634330422E0,3.822055578E0,8.194529533E0,2.265441418E0
3.654330422E0,4.088482380E0,7.953527927E0,2.006618738E0
3.674331985E0,4.297314167E0,7.694227695E0,2.068187952E0
3.694330422E0,4.318536282E0,7.188188076E0,2.612485647E0
3.714330422E0,3.345417976E0,7.388352871E0,2.669429541E0
3.734331985E0,2.799003601E0,7.822010040E0,2.246871948E0
3.754330422E0,3.030216455E0,8.549435616E0,2.461392403E0
3.774330422E0,3.293530703E0,9.574499130E0,2.479837418E0
3.794330422E0,3.922046900E0,9.825421333E0,1.461391926E0
3.814331985E0,4.117681980E0,9.818333626E0,2.733498335E0
3.834330422E0,3.895672560E0,9.968431473E0,1.531436682E0
3.854330422E0,3.724295616E0,9.370388985E0,1.410184741E0
3.874331985E0,3.166542292E0,8.602864265E0,1.157749653E0
3.894330422E0,2.821327209E0,8.261795998E0,2.929066122E-1
3.914330422E0,2.386099577E0,8.858364105E0,7.584160566E-1
3.934330422E0,3.100979567E0,8.890437126E0,-2.727857530E-1
3.954331985E0,3.366802931E0,9.074140549E0,2.107950896E-1
3.974330422E0,3.481015921E0,8.893894196E0,-8.334119916E-1
3.994328860E0,3.483132362E0,9.017224312E0,-5.526583195E-1
4.014331985E0,3.883356571E0,9.830562592E0,-5.839936733E-1
4.034331985E0,4.728787422E0,1.064483070E1,-3.083827496E-1
4.054330422E0,5.386963367E0,1.035904980E1,1.704480052E-1
4.074330422E0,5.549481392E0,9.425732613E0,5.232958794E-1
4.094331985E0,5.268077850E0,8.952207565E0,3.465942144E-1
4.114330422E0,4.298980713E0,8.778780937E0,1.151323691E-1
4.134330422E0,3.872266769E0,8.392078400E0,-1.336155981E-1
4.154330422E0,3.396155834E0,8.341570854E0,-5.300762057E-1
4.174331985E0,2.839264631E0,8.867768288E0,-6.630023122E-1
4.194330422E0,2.654489517E0,9.449282646E0,-5.544396043E-1
4.214330422E0,2.637701511E0,9.743950844E0,-3.505398333E-1
4.234331985E0,2.836238146E0,9.825075150E0,-3.091201484E-1
4.254330422E0,3.567571163E0,9.825774193E0,-6.493074819E-3
4.274330422E0,4.464687824E0,9.543575287E0,-9.599790722E-2
4.294330422E0,5.128715038E0,9.176429749E0,1.952710748E-2
4.314331985E0,5.263643742E0,8.584113121E0,5.831604600E-1
4.334330422E0,4.591935158E0,8.186887741E0,7.013095617E-1
4.354330422E0,3.639330149E0,7.825131893E0,1.184947848E0
4.374331985E0,3.264072418E0,7.946546555E0,1.377767205E0
4.394330422E0,3.949752808E0,8.814435959E0,1.255193710E0
4.414330422E0,3.980475187E0,9.633855820E0,1.315192342E0
4.434330422E0,3.560963154E0,9.230873108E0,1.432651877E0
4.454331985E0,3.492938995E0,8.265743256E0,1.490802288E0
4.474330422E0,4.071071625E0,7.562382698E0,1.906608105E0
4.494328860E0,4.834257126E0,8.005177498E0,2.215613365E0
4.514331985E0,5.266237736E0,9.014351845E0,2.547382593E0
4.534339797E0,5.745624065E0,9.777105331E0,2.635355234E0
4.554330422E0,5.947771549E0,9.461386681E0,1.947750092E0
4.574330422E0,5.732973099E0,7.981262684E0,2.104570150E0
4.594331985E0,5.397057056E0,6.836134911E0,2.590765476E0
4.614330422E0,5.603523731E0,6.797962189E0,3.634436369E0
4.634330422E0,5.605639935E0,7.199326038E0,2.527003288E0
4.654330422E0,4.521756172E0,6.963860989E0,1.329892755E0
4.674331985E0,3.515923262E0,6.674545765E0,1.563490272E0
4.694330422E0,2.929353476E0,6.910805225E0,1.882014871E0
4.714330422E0,2.680011749E0,7.898662567E0,2.203115702E0
4.734331985E0,2.896054983E0,1.023746395E1,3.236194372E0
4.754330422E0,3.450916052E0,1.307370090E1,1.571123004E0
4.774330422E0,4.079288483E0,1.344991589E1,4.440956712E-1
4.794330422E0,4.705496788E0,1.045870590E1,1.324347854E0
4.814331985E0,3.687884569E0,7.863142014E0,4.394700825E-1
4.834330422E0,3.264541864E0,6.071226120E0,2.532107532E-1
4.854330422E0,3.576429605E0,5.149151802E0,2.207750797E0
4.874331985E0,4.260213375E0,6.982765675E0,1.650849938E0
4.894330422E0,4.151842594E0,8.978284836E0,7.046135068E-1
4.914330422E0,4.226895809E0,1.044326878E1,1.567320943E0
4.934330422E0,4.744981766E0,1.065244484E1,1.056800604E0
4.954331985E0,4.883692265E0,9.213596344E0,2.080178112E-1
4.974330422E0,4.475548267E0,7.987995148E0,9.273604751E-1
4.994328860E0,4.070841789E0,8.303570747E0,1.076844811E0
5.014331985E0,3.527616739E0,9.485828400E0,6.592386365E-1
5.034331985E0,3.639128923E0,9.729844093E0,1.130398393E0
5.054330422E0,4.233705044E0,9.004046440E0,1.325698137E0
5.074330422E0,4.388858795E0,8.176725388E0,1.106092453E0
5.094331985E0,4.181023121E0,7.866771698E0,1.289363742E0
5.114330422E0,3.899148941E0,8.368119240E0,9.621242881E-1
5.134330422E0,4.097915649E0,8.805193901E0,8.854906559E-1
5.154330422E0,4.220096588E0,9.169887543E0,8.967242837E-1
5.174331985E0,4.383198738E0,9.246330261E0,8.327320218E-1
5.194330422E0,4.294584751E0,9.015672684E0,9.476537108E-1
5.214330422E0,4.147647858E0,8.770296097E0,7.638460994E-1
5.234331985E0,4.108143330E0,8.660919189E0,1.005583882E0
5.254330422E0,3.997196198E0,8.777315140E0,9.728694558E-1
5.274330422E0,3.939572573E0,8.851267815E0,9.378183484E-1
5.294330422E0,3.832025051E0,8.928524017E0,9.689046741E-1
5.314331985E0,3.776594400E0,8.888904572E0,8.441858888E-1
5.334330422E0,3.685662746E0,8.900712967E0,9.309805036E-1
5.354330422E0,3.665781260E0,9.016075134E0,8.511291146E-1
5.374331985E0,3.802959442E0,9.000494957E0,8.943875432E-1
5.394330422E0,3.998460293E0,9.019839287E0,8.853757381E-1
5.414330422E0,4.185131550E0,9.085861206E0,9.056594372E-1
5.434330422E0,4.278409481E0,9.000446320E0,9.336715937E-1
5.454331985E0,4.308269978E0,8.884805679E0,1.005957365E0
5.474330422E0,4.312292099E0,8.784344673E0,8.961305022E-1
5.494328860E0,4.318344593E0,8.747178078E0,9.187317491E-1
5.514331985E0,4.228619576E0,8.738088608E0,1.113495231E0
5.534331985E0,4.074356556E0,8.840762138E0,1.388876319E0
5.554330422E0,3.998690128E0,8.835293770E0,1.106341362E0
5.574330422E0,3.932284594E0,8.672927856E0,9.101030827E-1
5.594331985E0,3.880608082E0,8.682677269E0,1.248001575E0
5.614330422E0,3.866060972E0,8.792293549E0,1.324635148E0
5.634330422E0,3.795211792E0,8.884757996E0,1.256572723E0
5.654330422E0,3.704164982E0,8.878121376E0,9.732142091E-1
5.674331985E0,3.745268822E0,8.906793594E0,1.177765250E0
5.694330422E0,3.835338593E0,8.837802887E0,1.187255859E0
5.714330422E0,3.812162638E0,8.840149879E0,1.253987074E0
5.734331985E0,3.752681255E0,8.822115898E0,1.214070916E0
5.754330422E0,3.774152279E0,8.858461380E0,1.244371891E0
5.774330422E0,3.935942888E0,8.906822205E0,1.013791203E0
5.794330422E0,4.146412373E0,8.931128502E0,1.067114830E0
5.814331985E0,4.136902809E0,8.987421036E0,1.202540398E0
5.834330422E0,4.061523438E0,8.930870056E0,1.005516768E0
5.854330422E0,3.967460155E0,8.895829201E0,1.156370640E0
5.874331985E0,4.028914452E0,8.819894791E0,1.259694815E0
5.894330422E0,4.035676003E0,8.834374428E0,1.184823394E0
5.914330422E0,3.941679478E0,8.847867966E0,1.114941359E0
5.934330422E0,3.895260572E0,8.884232521E0,1.151725888E0
5.954331985E0,3.868062496E0,8.954210281E0,1.148469806E0
5.974330422E0,3.814614296E0,8.932777405E0,1.017803788E0
5.994328860E0,3.856225491E0,8.923909187E0,1.070514560E0
6.014331985E0,3.867995501E0,9.005100250E0,1.150327682E0
6.034331985E0,3.960181713E0,8.889947891E0,1.018694520E0
6.054330422E0,4.024059296E0,8.777096748E0,1.034457922E0
6.074330422E0,4.066283226E0,8.888760567E0,1.016386509E0
6.094331985E0,3.872917891E0,8.967597961E0,1.011530995E0
6.114330422E0,3.891573668E0,8.847790718E0,1.130082369E0
6.134330422E0,3.848276854E0,9.042526245E0,1.081652403E0
6.154330422E0,3.814662218E0,9.208618164E0,1.044207096E0
6.174331985E0,3.649443150E0,9.063508987E0,9.115108848E-1
6.194330422E0,3.565004587E0,8.888128281E0,9.636852741E-1
6.214330422E0,3.616546869E0,8.821599007E0,1.077227950E0
6.234331985E0,3.811051846E0,9.023602486E0,1.111254334E0
6.254330422E0,3.802432775E0,9.079751015E0,1.055210829E0
6.274330422E0,3.804692745E0,9.018478394E0,1.066434860E0
6.294330422E0,3.752288580E0,9.033160210E0,1.113217592E0
6.314330422E0,3.675741196E0,9.141291618E0,1.177937627E0
6.334330422E0,3.383629322E0,9.104468346E0,1.244333625E0
6.354330422E0,3.160250425E0,8.886481285E0,1.225563049E0
6.374331985E0,3.191623926E0,8.687648773E0,1.279250622E0
6.394330422E0,3.340572119E0,8.711245537E0,1.456469417E0
6.414330422E0,3.684752941E0,8.725514412E0,1.419215679E0
6.434330422E0,3.987063885E0,8.713390350E0,1.410089016E0
6.454331985E0,4.107731819E0,8.820056915E0,1.437832952E0
6.474330422E0,4.004876614E0,8.889804840E0,1.379730463E0
6.494328860E0,3.839332104E0,8.954660416E0,1.324817061E0
6.514331985E0,3.832657099E0,9.031801224E0,1.362999797E0
6.534331985E0,3.782101154E0,9.093292236E0,1.433427691E0
6.554330422E0,3.806282520E0,8.936252594E0,1.386625767E0
6.574330422E0,3.640795231E0,8.737112045E0,1.483820796E0
6.594331985E0,3.651770353E0,8.871686935E0,1.621133089E0
6.614330422E0,3.763426304E0,8.927968979E0,1.513987780E0
6.634330422E0,3.817324638E0,8.855385780E0,1.510511398E0
6.654330422E0,3.777896881E0,8.812416077E0,1.505004644E0
6.674331985E0,3.722178936E0,8.757251740E0,1.432776451E0
6.694330422E0,3.688775063E0,8.834383965E0,1.550111413E0
6.714330422E0,3.734303236E0,9.005522728E0,1.551155329E0
6.734331985E0,3.592662334E0,9.087527275E0,1.445551872E0
6.754330422E0,3.414677382E0,9.002657890E0,1.442391515E0
6.774330422E0,3.292563438E0,8.950350761E0,1.474512100E0
6.794330422E0,3.369110823E0,8.942199707E0,1.529550076E0
6.814331985E0,3.385630846E0,8.997995377E0,1.530766368E0
6.834330422E0,3.425058603E0,9.022462845E0,1.514495373E0
6.854330422E0,3.573614120E0,8.993703842E0,1.551816106E0
6.874331985E0,3.622254610E0,8.937008858E0,1.570107818E0
6.894330422E0,3.621047974E0,8.873486519E0,1.556863070E0
6.914330422E0,3.626229048E0,8.844190598E0,1.523210168E0
6.934330422E0,3.653723955E0,8.826292038E0,1.578228951E0
6.954330422E0,3.630107641E0,8.877766609E0,1.597708225E0
6.974330422E0,3.586293697E0,8.929837227E0,1.609372735E0
6.994328860E0,3.596454620E0,8.948692322E0,1.621793866E0
7.014331985E0,3.604872704E0,8.903451920E0,1.674380064E0
7.034331985E0,3.597153902E0,8.873352051E0,1.662198424E0
7.054330422E0,3.630739689E0,8.884336472E0,1.607495666E0
7.074330422E0,3.719775200E0,8.881185532E0,1.572358370E0
7.094331985E0,3.726948261E0,8.888578415E0,1.565549254E0
7.114330422E0,3.701215506E0,8.898912430E0,1.605848432E0
7.134330422E0,3.700104475E0,8.889996529E0,1.594739437E0
7.154330422E0,3.702575207E0,8.838750839E0,1.588236690E0
7.174330422E0,3.674706697E0,8.859494209E0,1.612446904E0
7.194330422E0,3.769775867E0,8.830121994E0,1.620721221E0
7.214330422E0,3.819134712E0,8.787065506E0,1.614304781E0
7.234331985E0,3.844244957E0,8.822729111E0,1.615339041E0
7.254330422E0,3.836468697E0,8.811102867E0,1.596846223E0
7.274330422E0,3.834840536E0,8.755250931E0,1.597104907E0
7.294330422E0,3.848822832E0,8.747991562E0,1.621056437E0
7.314330422E0,3.863915682E0,8.773905754E0,1.632404923E0
7.334330422E0,3.852289438E0,8.769663811E0,1.634176612E0
7.354330422E0,3.859452963E0,8.822029114E0,1.604967356E0
7.374331985E0,3.846457243E0,8.847677231E0,1.626505613E0
7.394330422E0,3.808293581E0,8.827173233E0,1.661365271E0
7.414330422E0,3.774123669E0,8.809273720E0,1.664075494E0
7.434330422E0,3.782168150E0,8.814301491E0,1.651213765E0
7.454331985E0,3.785127401E0,8.852416992E0,1.663979650E0
7.474330422E0,3.742031813E0,8.872920990E0,1.645687938E0
7.494328860E0,3.703150034E0,8.852407455E0,1.607610583E0
7.514331985E0,3.664134026E0,8.863247871E0,1.592517614E0
7.534331985E0,3.651004314E0,8.877307892E0,1.602056026E0
7.554330422E0,3.681324482E0,8.872509003E0,1.601423979E0
7.574330422E0,3.656826973E0,8.862396240E0,1.665847182E0
7.594331985E0,3.620454311E0,8.822718620E0,1.639204502E0
7.614330422E0,3.695335150E0,8.842112541E0,1.582098007E0
7.634330422E0,3.776968002E0,8.894975662E0,1.599709749E0
7.654330422E0,3.812363863E0,8.850990295E0,1.621018171E0
7.674330422E0,3.741677523E0,8.815690041E0,1.588887930E0
7.694330422E0,3.736764431E0,8.803038597E0,1.547784328E0
7.714330422E0,3.753370762E0,8.866714478E0,1.601127148E0
7.734331985E0,3.735845089E0,8.873927116E0,1.662198424E0
7.754330422E0,3.668012619E0,8.856507301E0,1.558711410E0
7.774330422E0,3.601444244E0,8.852569580E0,1.549268723E0
7.794330422E0,3.612409592E0,8.909811020E0,1.541300774E0
7.814331985E0,3.547756672E0,8.957455635E0,1.500235438E0
7.834330422E0,3.482002258E0,8.971523285E0,1.611498833E0
7.854330422E0,3.509372711E0,8.988303185E0,1.565147042E0
7.874331985E0,3.462283611E0,9.020442009E0,1.357531428E0
7.894330422E0,3.522636652E0,9.008681297E0,1.485113621E0
7.914330422E0,3.578162909E0,8.994097710E0,1.493522167E0
7.934330422E0,3.618605852E0,8.944190979E0,1.471447587E0
7.954331985E0,3.622493982E0,8.925201416E0,1.468689442E0
7.974330422E0,3.574619532E0,8.918622017E0,1.445551872E0
7.994328860E0,3.533247709E0,8.925956726E0,1.482556701E0
8.014331985E0,3.561326981E0,8.924721718E0,1.474617481E0
8.034331985E0,3.627876282E0,8.966496468E0,1.508940816E0
8.054330422E0,3.676957369E0,8.967262268E0,1.451288342E0
8.074330422E0,3.658531666E0,9.000369072E0,1.440179348E0
8.094331985E0,3.603139400E0,8.950942993E0,1.450531840E0
8.114330422E0,3.539731264E0,8.931779861E0,1.423266649E0
8.134330422E0,3.517015219E0,8.918401718E0,1.458030462E0
8.154330422E0,3.563309431E0,8.942668915E0,1.477346897E0
8.174331985E0,3.554537058E0,8.996643066E0,1.462895513E0
8.194330422E0,3.558722019E0,8.991204262E0,1.436319828E0
8.214330422E0,3.535881519E0,8.991012573E0,1.465988755E0
8.234331985E0,3.560742855E0,8.958040237E0,1.462952971E0
8.254330422E0,3.590737343E0,8.944374084E0,1.405539989E0
8.274330422E0,3.578910112E0,8.986702919E0,1.402149796E0
8.294330422E0,3.529235125E0,8.982901573E0,1.438340545E0
8.314331985E0,3.506509304E0,8.975316048E0,1.435630322E0
8.334330422E0,3.507486105E0,8.981397629E0,1.450196624E0
8.354330422E0,3.517359972E0,8.954285622E0,1.480516791E0
8.374331985E0,3.554661512E0,8.935170174E0,1.420115948E0
8.394330422E0,3.606950998E0,8.929347992E0,1.424482942E0
8.414330422E0,3.620425463E0,8.938829422E0,1.448817611E0
8.434330422E0,3.661203623E0,8.966908455E0,1.456689715E0
8.454330422E0,3.647882223E0,8.974119186E0,1.458672166E0
8.474330422E0,3.641685963E0,8.959218979E0,1.457446337E0
8.494328860E0,3.595688581E0,8.934902191E0,1.476360440E0
8.514331985E0,3.565119505E0,8.909216881E0,1.512235165E0
8.534330422E0,3.608569384E0,8.905366898E0,1.509515405E0
8.554330422E0,3.628469944E0,8.961668968E0,1.487431288E0
8.574330422E0,3.633248806E0,8.940800667E0,1.477442622E0
8.594331985E0,3.624208212E0,8.928964615E0,1.509027004E0
8.614330422E0,3.657171726E0,8.939910889E0,1.494891644E0
8.634330422E0,3.680759430E0,8.949248314E0,1.503146768E0
8.654330422E0,3.662965536E0,8.937104225E0,1.506852984E0
8.674330422E0,3.621536493E0,8.902706146E0,1.491041660E0
8.694330422E0,3.589262486E0,8.904026031E0,1.507695794E0
8.714330422E0,3.566977262E0,8.920556068E0,1.523267627E0
8.734331985E0,3.597517729E0,8.933101654E0,1.527098417E0
8.754330422E0,3.630864143E0,8.945321083E0,1.508002281E0
8.774330422E0,3.652210951E0,8.981752396E0,1.475172997E0
8.794330422E0,3.649040937E0,8.936895370E0,1.478879213E0
8.814331985E0,3.607726574E0,8.922070503E0,1.493723273E0
8.834330422E0,3.598417997E0,8.921063423E0,1.523143172E0
8.854330422E0,3.592997551E0,8.923227310E0,1.484768867E0
8.874331985E0,3.582817316E0,8.936855316E0,1.482125759E0
8.894330422E0,3.560302258E0,8.952131271E0,1.499076605E0
8.914330422E0,3.569974899E0,8.945110321E0,1.503309608E0
8.934330422E0,3.605533600E0,8.949793816E0,1.450474381E0
8.954331985E0,3.591991901E0,8.951871872E0,1.503481984E0
8.974330422E0,3.581514835E0,8.933256149E0,1.514734745E0
8.994328860E0,3.559947968E0,8.920230865E0,1.472989440E0
9.014330422E0,3.579417467E0,8.945848465E0,1.473774791E0
9.034331985E0,3.584321022E0,8.948127747E0,1.465950489E0
9.054330422E0,3.564621449E0,8.930668831E0,1.505828261E0
9.074330422E0,3.524437189E0,8.949956894E0,1.502074242E0
9.094331985E0,3.539463043E0,8.962176323E0,1.523286819E0
9.114330422E0,3.529292583E0,8.948491096E0,1.504324794E0
9.134330422E0,3.571392298E0,8.949497223E0,1.510386825E0
9.154330422E0,3.608511925E0,8.929462433E0,1.493656158E0
9.174330422E0,3.640843153E0,8.911286354E0,1.502102971E0
9.194330422E0,3.640575171E0,8.917203903E0,1.542009473E0
9.214330422E0,3.613759995E0,8.945217133E0,1.513212085E0
9.234331985E0,3.599854469E0,8.918353081E0,1.520768166E0
9.254330422E0,3.646483898E0,8.911007881E0,1.555263758E0
9.274330422E0,3.661538601E0,8.909915924E0,1.552400351E0
9.294330422E0,3.659766912E0,8.896901131E0,1.510540128E0
9.314331985E0,3.615962744E0,8.909534454E0,1.507427692E0
9.334330422E0,3.597421885E0,8.950090408E0,1.497506022E0
9.354330422E0,3.592116356E0,8.945225716E0,1.528908372E0
9.374331985E0,3.655505419E0,8.940226555E0,1.518488884E0
9.394330422E0,3.644932508E0,8.892677307E0,1.524598837E0
9.414330422E0,3.669592857E0,8.875880241E0,1.531091928E0
9.434328860E0,3.688152552E0,8.863525391E0,1.551605463E0
9.454331985E0,3.710054874E0,8.879289627E0,1.537987232E0
9.474330422E0,3.698486090E0,8.887890816E0,1.543484330E0
9.494328860E0,3.709231138E0,8.867471695E0,1.550264716E0
9.514330422E0,3.703293562E0,8.880966187E0,1.543110847E0
9.534330422E0,3.715417862E0,8.894641876E0,1.538944960E0
9.554330422E0,3.646033764E0,8.907705307E0,1.547027707E0
9.574330422E0,3.659853220E0,8.911802292E0,1.526791930E0
9.594331985E0,3.660791636E0,8.957791328E0,1.528573275E0
9.614330422E0,3.686208487E0,8.904064178E0,1.547267199E0
9.634330422E0,3.644989967E0,8.890053749E0,1.513796210E0
9.654330422E0,3.653465509E0,8.831299782E0,1.513537645E0
9.674331985E0,3.669583321E0,8.864829063E0,1.493320942E0
9.694330422E0,3.648102522E0,8.928245544E0,1.522099257E0
9.714330422E0,3.604604483E0,8.974252701E0,1.523401737E0
9.734331985E0,3.532328367E0,8.991624832E0,1.538877845E0
9.754330422E0,3.531907082E0,8.976025581E0,1.529262781E0
9.774330422E0,3.590813875E0,8.925843239E0,1.533198833E0
9.794330422E0,3.559344530E0,8.942160606E0,1.558941245E0
9.814331985E0,3.541052818E0,8.903853416E0,1.534836411E0
9.834330422E0,3.578967571E0,8.922298431E0,1.544327021E0
9.854330422E0,3.576937199E0,8.955856323E0,1.591454506E0
9.874331985E0,3.562543154E0,8.925382614E0,1.540936828E0
9.894331985E0,3.577377796E0,8.921992302E0,1.564438343E0
9.914330422E0,3.609766483E0,8.938818932E0,1.571563482E0
9.934330422E0,3.604307652E0,8.906870842E0,1.573335171E0
9.954331985E0,3.610005856E0,8.904552460E0,1.566736817E0
9.974330422E0,3.594376564E0,8.920441628E0,1.549910307E0
9.994328860E0,3.606194258E0,8.944565773E0,1.561718583E0
1.001433042E1,3.625137329E0,8.914954185E0,1.555053115E0
1.003433199E1,3.622340918E0,8.894431114E0,1.563911676E0
1.005433042E1,3.641906261E0,8.893195152E0,1.552553535E0
1.007433042E1,3.606472015E0,8.900405884E0,1.540898561E0
1.009433198E1,3.608023405E0,8.915910721E0,1.531273842E0
1.011433042E1,3.647968292E0,8.920804977E0,1.564237237E0
1.013433042E1,3.692155838E0,8.921876907E0,1.565328956E0
1.015432886E1,3.737310410E0,8.902896881E0,1.555934191E0
1.017433042E1,3.682492733E0,8.897073746E0,1.544298291E0
1.019433042E1,3.633105278E0,8.872423172E0,1.522060990E0
1.021433042E1,3.613147020E0,8.888800621E0,1.547094822E0
1.023433198E1,3.659939289E0,8.958202362E0,1.516276598E0
1.025433042E1,3.627856970E0,8.961899757E0,1.548914313E0
1.027433042E1,3.561039686E0,8.917701721E0,1.554267764E0
1.029433042E1,3.578651428E0,8.886768341E0,1.527711272E0
1.031433198E1,3.623509169E0,8.909915924E0,1.568249941E0
1.033433042E1,3.642902136E0,8.921006203E0,1.547372460E0
1.035433042E1,3.642528772E0,8.917338371E0,1.543627977E0
1.037433199E1,3.630031109E0,8.906929016E0,1.558213472E0
1.039433198E1,3.631927252E0,8.915116310E0,1.552994132E0
1.041433042E1,3.647250175E0,8.932344437E0,1.546740413E0
1.043433042E1,3.657535553E0,8.942754745E0,1.557686687E0
1.045433042E1,3.694013596E0,8.892084122E0,1.559975624E0
1.047433042E1,3.679753780E0,8.897437096E0,1.562963486E0
1.049432886E1,3.676095486E0,8.899180412E0,1.555848002E0
1.051433042E1,3.564602375E0,8.891797066E0,1.541693449E0
1.053433199E1,3.547756672E0,8.940648079E0,1.527673006E0
1.055433042E1,3.598638296E0,8.964427948E0,1.522300363E0
1.057433042E1,3.631410122E0,8.964322090E0,1.540237784E0
1.059433198E1,3.613357782E0,8.945809364E0,1.516219139E0
1.061433042E1,3.529474497E0,8.956027985E0,1.482642889E0
1.063433042E1,3.552803755E0,8.934107780E0,1.498865962E0
1.065433042E1,3.560819387E0,8.945829391E0,1.499785304E0
1.067433198E1,3.544749498E0,8.935458183E0,1.494958639E0
1.069433042E1,3.556940794E0,8.944575310E0,1.515089035E0
1.071433042E1,3.575242043E0,8.945340157E0,1.521151185E0
1.073433198E1,3.606452942E0,8.936348915E0,1.534041524E0
1.075433042E1,3.589999914E0,8.934585571E0,1.507082820E0
1.077433042E1,3.565090656E0,8.953721046E0,1.516563892E0
1.079433042E1,3.559564829E0,8.945015907E0,1.515385985E0
1.081433198E1,3.562102795E0,8.928697586E0,1.520748973E0
1.083433042E1,3.565483332E0,8.937305450E0,1.533103108E0
1.085433042E1,3.587203503E0,8.936138153E0,1.554756165E0
1.087433199E1,3.566977262E0,8.940800667E0,1.534913063E0
1.089433198E1,3.584761381E0,8.957225800E0,1.535679221E0
1.091433042E1,3.601022959E0,8.974023819E0,1.527538896E0
1.093433042E1,3.587193966E0,8.941567421E0,1.528611541E0
1.095433199E1,3.565761089E0,8.947208405E0,1.538810849E0
1.097433042E1,3.570051432E0,8.964647293E0,1.497956157E0
1.099432886E1,3.590948105E0,8.948213577E0,1.560205460E0
1.101433042E1,3.583727121E0,8.898663521E0,1.541980743E0
1.103433042E1,3.619142294E0,8.893271446E0,1.560693860E0
1.105433042E1,3.640393019E0,8.894276619E0,1.535123706E0
1.107433042E1,3.623221874E0,8.917203903E0,1.530172586E0
1.109433198E1,3.587902546E0,8.916381836E0,1.536809325E0
1.111433042E1,3.633765936E0,8.951001167E0,1.537460446E0
1.113433042E1,3.627866745E0,8.951594353E0,1.548378110E0
1.115432886E1,3.672188044E0,8.874222755E0,1.567263484E0
1.117433042E1,3.661069393E0,8.908029556E0,1.555723429E0
1.119433042E1,3.624246597E0,8.879500389E0,1.553271770E0
1.121433042E1,3.664210558E0,8.904265404E0,1.537910581E0
1.123433198E1,3.645689011E0,8.914896011E0,1.564342618E0
1.125433042E1,3.608148098E0,8.912616730E0,1.546874523E0
1.127433042E1,3.583956957E0,8.929615021E0,1.544068456E0
1.129433042E1,3.635643005E0,8.943989754E0,1.527002573E0
1.131433198E1,3.647901297E0,8.935523987E0,1.529080749E0
1.133433042E1,3.634570360E0,8.927096367E0,1.543177843E0
1.135433042E1,3.582750320E0,8.878101349E0,1.531819820E0
1.137433199E1,3.604384422E0,8.918642044E0,1.522597313E0
1.139433198E1,3.613089561E0,8.934853554E0,1.557102561E0
1.141433042E1,3.630270481E0,8.933838844E0,1.526657820E0
1.143433042E1,3.626152515E0,8.911765099E0,1.538944960E0
1.145433042E1,3.633641481E0,8.890494347E0,1.533706427E0
1.147433042E1,3.626525879E0,8.916907310E0,1.545447588E0
1.149433042E1,3.632587910E0,8.933647156E0,1.539940834E0
1.151432886E1,3.612103224E0,8.917692184E0,1.557179093E0
1.153433511E1,3.603713989E0,8.886481285E0,1.534836411E0
1.155433042E1,3.644156694E0,8.888731956E0,1.543647170E0
1.157433042E1,3.653484583E0,8.887152672E0,1.548493028E0
1.159433198E1,3.709681273E0,8.895560265E0,1.538015962E0
1.161433042E1,3.654633760E0,8.944794655E0,1.533208370E0
1.163433042E1,3.647575617E0,8.904046059E0,1.536368728E0
1.165432886E1,3.603867054E0,8.908967972E0,1.542325497E0
1.167433198E1,3.618979454E0,8.918661118E0,1.548732400E0
1.169433042E1,3.613261938E0,8.907693863E0,1.561555743E0
1.171433042E1,3.629159451E0,8.925813675E0,1.544892073E0
1.173433198E1,3.642682076E0,8.939871788E0,1.569667339E0
1.175433042E1,3.610207081E0,8.912770271E0,1.546395659E0
1.177433042E1,3.620358467E0,8.934309006E0,1.541454077E0
1.179433042E1,3.620128632E0,8.922796249E0,1.541626453E0
1.181433198E1,3.620214701E0,8.893214226E0,1.586369276E0
1.183433042E1,3.612687349E0,8.875679016E0,1.569504499E0
1.185433042E1,3.629446745E0,8.881740570E0,1.542526603E0
1.187433199E1,3.650151968E0,8.902732849E0,1.553492069E0
1.189433198E1,3.612016916E0,8.938636780E0,1.564380884E0
1.191433042E1,3.589722157E0,8.957196236E0,1.546185017E0
1.193433042E1,3.616029739E0,8.961162567E0,1.564285159E0
1.195433199E1,3.627359152E0,8.922490120E0,1.568249941E0
1.197433042E1,3.663865805E0,8.892333031E0,1.557801604E0
1.199432886E1,3.645248652E0,8.882564545E0,1.547870517E0
1.201432886E1,3.637031555E0,8.881273270E0,1.567751884E0
1.203433199E1,3.620291471E0,8.918642044E0,1.539347172E0
1.205433042E1,3.604575872E0,8.917875290E0,1.568316936E0
1.207432886E1,3.595717192E0,8.909304619E0,1.536359191E0
1.209433198E1,3.601128101E0,8.949201584E0,1.542344689E0
1.211433042E1,3.605792046E0,8.948644638E0,1.523746490E0
1.213433042E1,3.593591213E0,8.949421883E0,1.545160294E0
1.215433042E1,3.566756964E0,8.935486794E0,1.563183784E0
1.217433198E1,3.566881657E0,8.910202980E0,1.558146358E0
1.219433042E1,3.559813976E0,8.911993980E0,1.576830745E0
1.221433042E1,3.616939545E0,8.948903084E0,1.549651742E0
1.223433198E1,3.624687195E0,8.933217049E0,1.573095798E0
1.225433042E1,3.630921602E0,8.905702591E0,1.557495236E0
1.227433042E1,3.632674217E0,8.908278465E0,1.568115830E0
1.229433042E1,3.653992176E0,8.910788536E0,1.567742348E0
1.231433198E1,3.617495060E0,8.923486710E0,1.562120795E0
1.233433042E1,3.644080162E0,8.907952309E0,1.571802974E0
1.235433042E1,3.634445906E0,8.905138016E0,1.563777566E0
1.237433199E1,3.638458490E0,8.905789375E0,1.555282950E0
1.239433042E1,3.643706799E0,8.928332329E0,1.528381705E0
1.241433042E1,3.640852690E0,8.924071312E0,1.551490545E0
1.243433042E1,3.626525879E0,8.908048630E0,1.589711547E0
1.245433199E1,3.634149075E0,8.896738052E0,1.532834888E0
1.247433042E1,3.625654459E0,8.910366058E0,1.575470805E0
1.249432886E1,3.650774479E0,8.895435333E0,1.535411119E0
1.251433042E1,3.643275738E0,8.903940201E0,1.535363197E0
1.253433199E1,3.655371189E0,8.921294212E0,1.532241106E0
1.255433042E1,3.624543428E0,8.922327042E0,1.529339314E0
1.257433042E1,3.639004469E0,8.915786743E0,1.553951740E0
1.259433198E1,3.630452394E0,8.967922211E0,1.509094000E0
1.261433042E1,3.667859316E0,8.920125008E0,1.546280742E0
1.263433042E1,3.602354050E0,8.908479691E0,1.544700623E0
1.265433042E1,3.627722979E0,8.866495132E0,1.513978124E0
1.267433042E1,3.659460545E0,8.906544685E0,1.544049382E0
1.269433042E1,3.652967453E0,8.936539650E0,1.539596081E0
1.271433042E1,3.603263855E0,8.925162315E0,1.527912378E0
1.273433198E1,3.627694368E0,8.927844048E0,1.547123551E0
1.275433042E1,3.660494804E0,8.924520493E0,1.559918165E0
1.277433042E1,3.644405842E0,8.899324417E0,1.557629228E0
1.279433042E1,3.667045355E0,8.924415588E0,1.558194280E0
1.281433198E1,3.629638433E0,8.889555931E0,1.574474812E0
1.283433042E1,3.624399900E0,8.877335548E0,1.546769142E0
1.285433042E1,3.649922132E0,8.893310547E0,1.580757260E0
1.287433199E1,3.638372421E0,8.903691292E0,1.546912789E0
1.289433198E1,3.651770353E0,8.916907310E0,1.569485307E0
1.291433042E1,3.687539816E0,8.922080040E0,1.544758081E0
1.293433042E1,3.674773932E0,8.902561188E0,1.557887793E0
1.295433199E1,3.694080591E0,8.907330513E0,1.547094822E0
1.297433042E1,3.655074358E0,8.900597572E0,1.553195238E0
1.299432886E1,3.620789289E0,8.909015656E0,1.540477157E0
1.301432886E1,3.627981663E0,8.919292450E0,1.545514584E0
1.303433199E1,3.637587070E0,8.904170036E0,1.563404083E0
1.305433042E1,3.630595922E0,8.913631439E0,1.554804087E0
1.307433042E1,3.636935949E0,8.910730362E0,1.581561685E0
1.309437417E1,3.631285667E0,8.895713806E0,1.558079362E0
1.311433042E1,3.582281113E0,8.916178703E0,1.546319008E0
1.313433042E1,3.620703220E0,8.878925323E0,1.569696069E0
1.315433042E1,3.646618128E0,8.922080040E0,1.552754641E0
1.317433198E1,3.651770353E0,8.921647072E0,1.572636127E0
1.319433042E1,3.647949219E0,8.912827492E0,1.563940406E0
1.321433042E1,3.669468403E0,8.903930664E0,1.561479092E0
1.323433198E1,3.629724503E0,8.891759872E0,1.545935988E0
1.325433042E1,3.648906946E0,8.901009560E0,1.555215955E0
1.327433042E1,3.659000874E0,8.911228180E0,1.545045376E0
1.329433042E1,3.651703358E0,8.905117989E0,1.522626042E0
1.331433198E1,3.675731421E0,8.901699066E0,1.546577573E0
1.333433042E1,3.700736523E0,8.913449287E0,1.508615136E0
1.335433042E1,3.621057510E0,8.931272507E0,1.525594831E0
1.337433199E1,3.623729467E0,8.930094719E0,1.466046214E0
1.339433198E1,3.640373945E0,8.911535263E0,1.532490134E0
1.341433042E1,3.586820364E0,8.888310432E0,1.532154918E0
1.343433042E1,3.627493143E0,8.874090195E0,1.486645937E0
1.345433199E1,3.621593952E0,8.926399231E0,1.518326044E0
1.347433042E1,3.663808346E0,8.907627106E0,1.514006853E0
1.349432886E1,3.569036245E0,8.942373276E0,1.515433788E0
1.351433042E1,3.623729467E0,8.915029526E0,1.521630049E0
1.353433199E1,3.598925591E0,8.937707901E0,1.539270520E0
1.355433042E1,3.624562740E0,8.929903030E0,1.540161133E0
1.357433042E1,3.625568151E0,8.944948196E0,1.526753664E0
1.359433198E1,3.628642321E0,8.923419952E0,1.562570930E0
1.361433042E1,3.624907494E0,8.934490204E0,1.566401601E0
1.363433042E1,3.598580837E0,8.931627274E0,1.558931708E0
1.365433042E1,3.581859589E0,8.937814713E0,1.551797032E0
1.367433198E1,3.575299501E0,8.946863174E0,1.591215134E0
1.369433199E1,3.582817316E0,8.936002731E0,1.543139577E0
1.371433042E1,3.600228071E0,8.961947441E0,1.567684889E0
1.373433198E1,3.600295067E0,8.936041832E0,1.558682680E0
1.375433042E1,3.563280582E0,8.936577797E0,1.558998704E0
1.377433042E1,3.542345762E0,8.965528488E0,1.549489021E0
1.379433042E1,3.535891056E0,8.984041214E0,1.568441510E0
1.381433198E1,3.552995205E0,8.978352547E0,1.570059896E0
1.383433042E1,3.556165218E0,8.948654175E0,1.574455738E0
1.385433042E1,3.553790092E0,8.919943810E0,1.582873702E0
1.387433199E1,3.548656940E0,8.937027931E0,1.565463066E0
1.389433198E1,3.583612204E0,8.914848328E0,1.571764588E0
1.391433042E1,3.595362902E0,8.897964478E0,1.578401327E0
1.393433042E1,3.626487494E0,8.912378311E0,1.603205323E0
1.395433199E1,3.657277107E0,8.916408539E0,1.599479914E0
1.397433042E1,3.668654203E0,8.940724373E0,1.577912927E0
1.399432886E1,3.657928228E0,8.930678368E0,1.565080047E0
1.401433042E1,3.686515093E0,8.927030563E0,1.559458375E0
1.403433199E1,3.666509151E0,8.885132790E0,1.593724251E0
1.405433042E1,3.675999641E0,8.860051155E0,1.625528812E0
1.407433042E1,3.695363998E0,8.874309540E0,1.610636830E0
1.409433198E1,3.696244955E0,8.881779671E0,1.634167075E0
1.411433042E1,3.720349789E0,8.815680504E0,1.642556429E0
1.413433042E1,3.694185972E0,8.813611984E0,1.655121088E0
1.415433042E1,3.761597157E0,8.850979805E0,1.693006992E0
1.417433198E1,3.813196898E0,8.886596680E0,1.634531021E0
1.419433042E1,3.717639685E0,8.906994820E0,1.662638903E0
1.421433042E1,3.699903488E0,8.920163155E0,1.630939722E0
1.423433198E1,3.670971870E0,8.871513367E0,1.653339863E0
1.425433042E1,3.580557108E0,8.812319756E0,1.666632414E0
1.427433042E1,3.603828907E0,8.820708275E0,1.659411550E0
1.429433042E1,3.675195217E0,8.837744713E0,1.698743463E0
1.431433198E1,3.697499514E0,8.858786583E0,1.799366951E0
1.433433042E1,3.653609037E0,8.787755013E0,1.767275095E0
1.435433042E1,3.682693958E0,8.779048920E0,1.745717764E0
1.437433199E1,3.735605717E0,8.828877449E0,1.771115422E0
1.439433198E1,3.784141064E0,8.863046646E0,1.784896493E0
1.441433042E1,3.745929480E0,8.870852470E0,1.818233252E0
1.443433042E1,3.765715122E0,8.812596321E0,1.816107273E0
1.445433199E1,3.771202803E0,8.766636848E0,1.806750774E0
1.447433042E1,3.776326418E0,8.752712250E0,1.826431036E0
1.449432886E1,3.757661104E0,8.756026268E0,1.865102172E0
1.451433042E1,3.690479755E0,8.792792320E0,1.905889869E0
1.453433199E1,3.690336227E0,8.829240799E0,1.850986004E0
1.455433042E1,3.712238312E0,8.844880104E0,1.804193735E0
1.457433042E1,3.734351158E0,8.846230507E0,1.824544430E0
1.459433198E1,3.698342323E0,8.842600822E0,1.846302986E0
1.461433042E1,3.676708460E0,8.803316116E0,1.813856721E0
1.463433042E1,3.648360968E0,8.810968399E0,1.836467505E0
1.465433042E1,3.645497561E0,8.824538231E0,1.846475363E0
1.467433198E1,3.669152260E0,8.862253189E0,1.829438210E0
1.469433042E1,3.715829611E0,8.849860191E0,1.829811692E0
1.471433042E1,3.708388329E0,8.828475952E0,1.871949673E0
1.473433198E1,3.657219648E0,8.814415932E0,1.841208100E0
1.475433042E1,3.690566063E0,8.811572075E0,1.853638768E0
1.477433042E1,3.718913317E0,8.795981407E0,1.856243610E0
1.479433042E1,3.761712074E0,8.798020363E0,1.850574136E0
1.481433198E1,3.759873390E0,8.822662354E0,1.855755210E0
1.483433042E1,3.741562605E0,8.821167946E0,1.874947190E0
1.485433042E1,3.742462635E0,8.793988228E0,1.883202314E0
1.487433042E1,3.769057512E0,8.793951988E0,1.891103268E0
1.489433198E1,3.774755716E0,8.793835640E0,1.875339866E0
1.491433042E1,3.789982796E0,8.784861565E0,1.850047469E0
1.493433042E1,3.774765253E0,8.764482498E0,1.874525785E0
1.495433199E1,3.739264011E0,8.781892776E0,1.902308106E0
1.497433042E1,3.789666891E0,8.799811363E0,1.860955477E0
1.499432886E1,3.798429489E0,8.760259628E0,1.828231454E0
1.501432886E1,3.800881147E0,8.786240578E0,1.856847048E0
1.503433355E1,3.836602688E0,8.778713226E0,1.804030895E0
1.505433042E1,3.842377424E0,8.727630615E0,1.833747745E0
1.507433042E1,3.824976444E0,8.712548256E0,1.874171495E0
1.509433198E1,3.881010294E0,8.729203224E0,1.825827718E0
1.511433042E1,3.905603647E0,8.749150276E0,1.847480893E0
1.513433042E1,3.877677679E0,8.752685547E0,1.843765020E0
1.515433042E1,3.863092184E0,8.741125107E0,1.817543745E0
1.517433198E1,3.833279610E0,8.785724640E0,1.824755073E0
1.519433042E1,3.807460546E0,8.810816765E0,1.836390972E0
1.521433042E1,3.828864574E0,8.783329964E0,1.799979925E0
1.523433198E1,3.818406820E0,8.775983810E0,1.818080068E0
1.525433042E1,3.786334038E0,8.798326492E0,1.846848845E0
1.527433042E1,3.806454897E0,8.776663780E0,1.777426481E0
1.529433042E1,3.783872843E0,8.782065392E0,1.768596768E0
1.531433198E1,3.783834457E0,8.801735878E0,1.797240973E0
1.533433042E1,3.754893303E0,8.809226990E0,1.822284341E0
1.535433042E1,3.760610819E0,8.829500198E0,1.777570248E0
1.537433042E1,3.762133360E0,8.816599846E0,1.760686278E0
1.539433198E1,3.770417452E0,8.817308426E0,1.781238079E0
1.541433042E1,3.765810966E0,8.793174744E0,1.793295264E0
1.543433042E1,3.762727261E0,8.796545982E0,1.750237942E0
1.545433199E1,3.767324209E0,8.825832367E0,1.782856584E0
1.547433042E1,3.759250879E0,8.842619896E0,1.798265696E0
1.549432886E1,3.772045374E0,8.804973602E0,1.745736837E0
1.551433042E1,3.775550604E0,8.800482750E0,1.769142628E0
1.553433199E1,3.743851423E0,8.812500954E0,1.805438638E0
1.555433042E1,3.736774206E0,8.820229530E0,1.789818883E0
1.557433042E1,3.705563307E0,8.820478439E0,1.796244979E0
1.559433198E1,3.745891094E0,8.813410759E0,1.784245253E0
1.561433042E1,3.731008768E0,8.846835136E0,1.777934074E0
1.563433042E1,3.745805025E0,8.838521957E0,1.793190002E0
1.565433042E1,3.714718819E0,8.832344055E0,1.770330071E0
1.567433198E1,3.690479755E0,8.828121185E0,1.798323154E0
1.569433042E1,3.682195902E0,8.833253860E0,1.796589732E0
1.571433042E1,3.728854179E0,8.821733475E0,1.775731444E0
1.573433198E1,3.707181692E0,8.817097664E0,1.803542495E0
1.575433198E1,3.718836784E0,8.818361282E0,1.772178411E0
1.577433042E1,3.693036795E0,8.813832283E0,1.758081436E0
1.579433042E1,3.722313166E0,8.850769997E0,1.739186406E0
1.581433198E1,3.734494925E0,8.852934837E0,1.762927294E0
1.583433042E1,3.724314690E0,8.797685623E0,1.794166803E0
1.585433042E1,3.726804733E0,8.783501625E0,1.740009904E0
1.587433042E1,3.745843410E0,8.812472343E0,1.767198563E0
1.589433198E1,3.777073383E0,8.812416077E0,1.767437935E0
1.591433042E1,3.749664545E0,8.813487053E0,1.751865983E0
1.593433042E1,3.727503777E0,8.868860245E0,1.747001052E0
1.595433199E1,3.738344669E0,8.852867126E0,1.742873430E0
1.597433042E1,3.726335287E0,8.819960594E0,1.736715555E0
1.599432886E1,3.742060423E0,8.809771538E0,1.777455211E0
1.601433042E1,3.733182907E0,8.814856529E0,1.769564033E0
1.603433198E1,3.715695620E0,8.832765579E0,1.739262938E0
1.605433042E1,3.715551853E0,8.836557388E0,1.719151616E0
1.607433042E1,3.714268684E0,8.852647781E0,1.749184489E0
1.609433198E1,3.701924086E0,8.848654747E0,1.745928407E0
1.611433042E1,3.723031282E0,8.832640648E0,1.713099122E0
1.613433042E1,3.738066912E0,8.830601692E0,1.723518729E0
1.615433042E1,3.759768009E0,8.812586784E0,1.776602983E0
1.617433199E1,3.752537489E0,8.801602364E0,1.736945391E0
1.619433042E1,3.684839010E0,8.813555717E0,1.714420676E0
1.621433042E1,3.715753078E0,8.844382286E0,1.744185448E0
1.623433198E1,3.730759859E0,8.838913918E0,1.780491114E0
1.625433198E1,3.731746197E0,8.780610085E0,1.742279649E0
1.627433042E1,3.726670504E0,8.799026489E0,1.736926198E0
1.629433042E1,3.738344669E0,8.844957352E0,1.758809209E0
1.631433199E1,3.736649513E0,8.869673729E0,1.723758101E0
1.633433042E1,3.767132521E0,8.850329399E0,1.745554924E0
1.635433042E1,3.764709711E0,8.835121155E0,1.755323291E0
1.637433042E1,3.759997845E0,8.836375237E0,1.764833093E0
1.639433198E1,3.772888184E0,8.830821037E0,1.787242770E0
1.641433042E1,3.750440121E0,8.778551102E0,1.775453687E0
1.643433042E1,3.752470493E0,8.788549423E0,1.792730331E0
1.645433198E1,3.778394938E0,8.848950386E0,1.800315142E0
1.647433042E1,3.762583494E0,8.819348335E0,1.794731855E0
1.649432886E1,3.771317720E0,8.775237083E0,1.779782414E0
1.651433042E1,3.756569386E0,8.783109665E0,1.783163071E0
1.653433198E1,3.734561920E0,8.788329124E0,1.796139598E0
1.655433042E1,3.770091772E0,8.819004059E0,1.801550508E0
1.657433042E1,3.804099083E0,8.828944206E0,1.763769984E0
1.659433198E1,3.764039278E0,8.842370987E0,1.801560044E0
1.661433042E1,3.756368160E0,8.789545059E0,1.831832409E0
1.663433042E1,3.758111238E0,8.760345459E0,1.779313207E0
1.665433042E1,3.791179895E0,8.756343842E0,1.791705608E0
1.667433199E1,3.847635269E0,8.772604942E0,1.829725504E0
1.669433042E1,3.835961103E0,8.813995361E0,1.789081454E0
1.671433198E1,3.810103655E0,8.790943146E0,1.790968180E0
1.673433198E1,3.807508469E0,8.796287537E0,1.807076335E0
1.675433042E1,3.805430174E0,8.798135757E0,1.805438638E0
1.677433042E1,3.842319965E0,8.773513794E0,1.778259754E0
1.679433042E1,3.792348385E0,8.769012451E0,1.784015417E0
1.681433199E1,3.801973104E0,8.757444382E0,1.815657139E0
1.683433042E1,3.813139439E0,8.773830414E0,1.800430059E0
1.685433042E1,3.827763319E0,8.784661293E0,1.795239449E0
1.687433042E1,3.788373947E0,8.786204338E0,1.799050927E0
1.689433198E1,3.817200184E0,8.764147758E0,1.799577713E0
1.691433042E1,3.857010841E0,8.783339500E0,1.790134907E0
1.693433042E1,3.872582674E0,8.769548416E0,1.801751614E0
1.695433198E1,3.847118139E0,8.753680229E0,1.802498579E0
1.697433042E1,3.813235283E0,8.757483482E0,1.816030622E0
1.699432886E1,3.782254457E0,8.776618004E0,1.804366112E0
1.701433042E1,3.791898251E0,8.806294441E0,1.820234895E0
1.703433198E1,3.811109304E0,8.779605865E0,1.809125781E0
1.705433042E1,3.816137075E0,8.761093140E0,1.813186288E0
1.707433042E1,3.830147982E0,8.756562233E0,1.814153552E0
1.709433198E1,3.823434591E0,8.767230988E0,1.830261827E0
1.711433042E1,3.835874796E0,8.746267319E0,1.816882968E0
1.713433042E1,3.824200869E0,8.748929977E0,1.799692631E0
1.715433042E1,3.819422007E0,8.768035889E0,1.824563622E0
1.717433199E1,3.821528912E0,8.789516449E0,1.840164185E0
1.719433042E1,3.830799103E0,8.782802582E0,1.833125234E0
1.721433042E1,3.820743561E0,8.763736725E0,1.804050088E0
1.723433198E1,3.823108912E0,8.743748665E0,1.819526196E0
1.725433198E1,3.821586370E0,8.770965576E0,1.844904661E0
1.727433042E1,3.822189569E0,8.768132210E0,1.822849274E0
1.729433042E1,3.807125330E0,8.790283203E0,1.823270679E0
1.731433199E1,3.827715397E0,8.757616043E0,1.824630618E0
1.733433042E1,3.841659307E0,8.745893478E0,1.828040004E0
1.735433042E1,3.825081825E0,8.770486832E0,1.840710044E0
1.737433042E1,3.810525179E0,8.799715996E0,1.810629368E0
1.739433198E1,3.765581131E0,8.813621521E0,1.828853965E0
1.741433042E1,3.749741077E0,8.752903938E0,1.812132835E0
1.743433042E1,3.784275055E0,8.762748718E0,1.791619420E0
1.745433198E1,3.822256565E0,8.764607430E0,1.816202998E0
1.747433042E1,3.827974081E0,8.785820007E0,1.830453277E0
1.749432886E1,3.811693430E0,8.783339500E0,1.783000231E0
1.751433042E1,3.812804461E0,8.772192001E0,1.795402169E0
1.753433198E1,3.837004900E0,8.797733307E0,1.829543471E0
1.755433042E1,3.840873957E0,8.774547577E0,1.802240014E0
1.757433042E1,3.844934464E0,8.790359497E0,1.793850780E0
1.759433198E1,3.785903215E0,8.742188454E0,1.799242496E0
1.761433042E1,3.810582638E0,8.748843193E0,1.797825098E0
1.763433042E1,3.828548670E0,8.792168617E0,1.805735588E0
1.765433042E1,3.788000345E0,8.826463699E0,1.812650084E0
1.767433199E1,3.746820211E0,8.799486160E0,1.807727575E0
1.769433042E1,3.767956257E0,8.790167809E0,1.768002987E0
1.771433042E1,3.801206827E0,8.805604935E0,1.801684618E0
1.773433198E1,3.791112900E0,8.812442780E0,1.793458104E0
1.775433198E1,3.763847828E0,8.785954475E0,1.792366385E0
1.777433042E1,3.773165941E0,8.781826019E0,1.813511968E0
1.779433042E1,3.763340235E0,8.778742790E0,1.803149819E0
1.781433199E1,3.787531137E0,8.794247627E0,1.789234757E0
1.783433042E1,3.841582775E0,8.778972626E0,1.816672325E0
1.785433042E1,3.827705860E0,8.779911041E0,1.800889730E0
1.787433042E1,3.815600872E0,8.793318748E0,1.811031580E0
1.789433198E1,3.791754484E0,8.805663109E0,1.817036152E0
1.791433042E1,3.778337479E0,8.795492172E0,1.787759900E0
1.793433042E1,3.760572433E0,8.798299789E0,1.784992218E0
1.795433198E1,3.782225609E0,8.793011665E0,1.818961143E0
1.797433042E1,3.791084051E0,8.781817436E0,1.828691125E0
1.799432886E1,3.773549080E0,8.801909447E0,1.835806727E0
1.801433042E1,3.758772135E0,8.804849625E0,1.835174680E0
1.803433198E1,3.765868425E0,8.812655449E0,1.822121501E0
1.805433042E1,3.807757378E0,8.775534630E0,1.820608377E0
1.807433042E1,3.791333199E0,8.771904945E0,1.852336287E0
1.809433198E1,3.779065371E0,8.797617912E0,1.841543317E0
1.811433042E1,3.752834320E0,8.798241615E0,1.838775516E0
1.813433042E1,3.727187634E0,8.809244156E0,1.840585589E0
1.815432886E1,3.791218281E0,8.820037842E0,1.814048290E0
1.817433199E1,3.797088861E0,8.788578033E0,1.849444151E0
1.819433042E1,3.791409731E0,8.766705513E0,1.836888909E0
1.821433042E1,3.787358761E0,8.777238846E0,1.828461289E0
1.823433198E1,3.819498539E0,8.753009796E0,1.870455623E0
1.825433198E1,3.814633608E0,8.803029060E0,1.834465981E0
1.827433042E1,3.805286646E0,8.805308342E0,1.830922604E0
1.829433042E1,3.765763044E0,8.773896217E0,1.843899131E0
1.831433199E1,3.837924242E0,8.757519722E0,1.853993058E0
1.833433042E1,3.854951859E0,8.748126984E0,1.876603961E0
1.835433042E1,3.791582108E0,8.783876419E0,1.898659348E0
1.837433042E1,3.749951839E0,8.809311867E0,1.924047470E0
1.839433198E1,3.739915371E0,8.819607735E0,1.932915568E0
1.841433042E1,3.791352272E0,8.865815163E0,1.949521780E0
1.843433042E1,3.872199774E0,8.849495888E0,1.917908669E0
1.845433198E1,3.862373829E0,8.710565567E0,1.972132564E0
1.847433042E1,3.907241344E0,8.649418831E0,1.979861021E0
1.849432886E1,3.856168032E0,8.714703560E0,1.965764046E0
1.851433042E1,3.798142195E0,8.660938263E0,1.966271639E0
1.853433198E1,3.699060678E0,8.674699783E0,1.932091951E0
1.855433042E1,3.623317719E0,8.743174553E0,1.950785875E0
1.857433042E1,3.667964697E0,8.792245865E0,1.926412940E0
1.859433198E1,3.697087765E0,8.800003052E0,1.917315006E0
1.861433042E1,3.646981955E0,8.808537483E0,1.900680065E0
1.863433042E1,3.642394781E0,8.767452240E0,1.898697615E0
1.865433042E1,3.622685671E0,8.711350441E0,1.865035176E0
1.867433042E1,3.650295496E0,8.702204704E0,1.868846774E0
1.869433042E1,3.687252522E0,8.737333298E0,1.879553556E0
1.871433042E1,3.712745905E0,8.787486076E0,1.899071097E0
1.873433198E1,3.748486519E0,8.838712692E0,1.877236009E0
1.875433198E1,3.710016489E0,8.848557472E0,1.804232001E0
1.877433042E1,3.740959167E0,8.812971115E0,1.851081729E0
1.879433042E1,3.746283770E0,8.812922478E0,1.832052588E0
1.881433199E1,3.781517029E0,8.791297913E0,1.828681588E0
1.883433042E1,3.766481400E0,8.798269272E0,1.856799126E0
1.885433042E1,3.740518570E0,8.777525902E0,1.808915019E0
1.887433042E1,3.775244236E0,8.768648148E0,1.782741666E0
1.889433198E1,3.770541906E0,8.825764656E0,1.766719699E0
1.891433042E1,3.777456284E0,8.831540108E0,1.776171923E0
1.893433042E1,3.727024794E0,8.803997993E0,1.786332965E0
1.895433198E1,3.708244801E0,8.798691750E0,1.730883241E0
1.897433042E1,3.754491091E0,8.763840675E0,1.706931710E0
1.899432886E1,3.778117180E0,8.794802666E0,1.695640564E0
1.901433042E1,3.744454622E0,8.831816673E0,1.730749130E0
1.903433198E1,3.742223263E0,8.880124092E0,1.710685730E0
1.905433042E1,3.748601437E0,8.831309319E0,1.690756440E0
1.907433042E1,3.759557247E0,8.818361282E0,1.674198151E0
1.909433198E1,3.789168835E0,8.818199158E0,1.671813488E0
1.911433042E1,3.810419798E0,8.808737755E0,1.670980334E0
1.913433042E1,3.788536787E0,8.819147110E0,1.641004920E0
1.915433042E1,3.770925045E0,8.824481010E0,1.606652975E0
1.917433199E1,3.753408909E0,8.885437965E0,1.663165689E0
1.919433042E1,3.706521034E0,8.827239037E0,1.654814720E0
1.921433042E1,3.718080282E0,8.838070869E0,1.627990007E0
1.923433198E1,3.786870480E0,8.866209030E0,1.598589301E0
1.925433198E1,3.789906263E0,8.917472839E0,1.632261276E0
1.927433042E1,3.751474380E0,8.880124092E0,1.588073969E0
1.929433042E1,3.649787903E0,8.847246170E0,1.585133791E0
1.931433199E1,3.646120071E0,8.869214058E0,1.571094275E0
1.933433042E1,3.647163868E0,8.920785904E0,1.565166235E0
1.935433042E1,3.641934872E0,8.946135521E0,1.569686413E0
1.937433042E1,3.619582653E0,8.950571060E0,1.569198012E0
1.939433198E1,3.622235537E0,8.946805954E0,1.669227839E0
1.941433042E1,3.603282928E0,8.930583000E0,1.754336834E0
1.943433042E1,3.707105160E0,8.911860466E0,1.872495532E0
1.945433198E1,3.811137915E0,8.861716270E0,1.218715668E0
1.947433042E1,3.782742739E0,8.857798576E0,1.266389012E0
1.949432886E1,3.760917187E0,8.870191574E0,1.594959617E0
1.951433042E1,3.788354874E0,8.899113655E0,1.376177549E0
1.953433198E1,3.775253773E0,8.892783165E0,1.226846337E0
1.955433042E1,3.733642578E0,8.890676498E0,1.375037909E0
1.957433042E1,3.767391205E0,8.913556099E0,1.376914859E0
1.959433198E1,3.816108465E0,8.888617516E0,1.315537214E0
1.961433042E1,3.834754467E0,8.889660835E0,1.368085146E0
1.963433042E1,3.809184313E0,8.905215263E0,1.389996886E0
1.965433042E1,3.756186247E0,8.926638603E0,1.399449110E0
1.967433199E1,3.775502682E0,8.882870674E0,1.322183490E0
1.969433042E1,3.740451574E0,8.866648674E0,1.411621213E0
1.971433042E1,3.747155428E0,8.879614830E0,1.440600634E0
1.973433198E1,3.734887362E0,8.888444901E0,1.437497854E0
1.975433198E1,3.804951429E0,8.901077271E0,1.300089836E0
1.977433042E1,3.799904346E0,8.891970634E0,1.434404492E0
1.979433042E1,3.812651157E0,8.864493370E0,1.294008493E0
1.981433199E1,3.831373692E0,8.860864639E0,1.311687231E0
1.983433042E1,3.846265793E0,8.888904572E0,1.341260433E0
1.985433042E1,3.835769653E0,8.910020828E0,1.290187359E0
1.987433042E1,3.808552265E0,8.899449348E0,1.302867055E0
1.989433198E1,3.784255981E0,8.863939285E0,1.354246616E0
1.991433042E1,3.821433067E0,8.854246140E0,1.277766228E0
1.993433042E1,3.852155447E0,8.865988731E0,1.331750751E0
1.995433198E1,3.835329056E0,8.912627220E0,1.384576321E0
1.997433042E1,3.794579744E0,8.899515152E0,1.330457807E0
1.999432886E1,3.825953245E0,8.899353981E0,1.321733356E0
2.001432886E1,3.835329056E0,8.915805817E0,1.332660437E0
2.003433198E1,3.792616367E0,8.919742584E0,1.315680861E0
2.005433042E1,3.742529869E0,8.904083252E0,1.320363879E0
2.007433042E1,3.731142998E0,8.887516975E0,1.313075900E0
2.009433198E1,3.741591215E0,8.917347908E0,1.308584452E0
2.011433042E1,3.759327412E0,8.934557915E0,1.286193848E0
2.013433042E1,3.801158905E0,8.919646263E0,1.275726438E0
2.015433042E1,3.740700483E0,8.922892570E0,1.269482255E0
2.017433199E1,3.751704216E0,8.897887230E0,1.277919412E0
2.019433042E1,3.752959013E0,8.909897804E0,1.277507663E0
2.021433042E1,3.770695210E0,8.929999352E0,1.274155736E0
2.023433198E1,3.808676720E0,8.886836052E0,1.297571063E0
2.025433198E1,3.815753937E0,8.892946243E0,1.307952285E0
2.027433042E1,3.817803383E0,8.889231682E0,1.295531273E0
2.029433042E1,3.789111376E0,8.890083313E0,1.280658484E0
2.031433199E1,3.795508623E0,8.890196800E0,1.305356979E0
2.033433042E1,3.822381258E0,8.910634995E0,1.327144265E0
2.035433042E1,3.833020926E0,8.883455276E0,1.338914156E0
2.037433042E1,3.824976444E0,8.892946243E0,1.297887087E0
2.039433198E1,3.768578768E0,8.954266548E0,1.327527285E0
2.041433042E1,3.800670624E0,8.922433853E0,1.300501585E0
2.043433042E1,3.761022568E0,8.916476250E0,1.301076174E0
2.045433198E1,3.754203796E0,8.892696381E0,1.299055457E0
2.047433042E1,3.755190372E0,8.888607979E0,1.294228792E0
2.049432886E1,3.773644686E0,8.884843826E0,1.316102147E0
2.051433042E1,3.795882225E0,8.907895088E0,1.273466229E0
2.053433198E1,3.759643555E0,8.922461510E0,1.299007654E0
2.055433042E1,3.750679731E0,8.915931702E0,1.309254766E0
2.057433042E1,3.757785559E0,8.925621986E0,1.344564438E0
2.059433198E1,3.766213179E0,8.878475189E0,1.342189431E0
2.061433042E1,3.798247576E0,8.886845589E0,1.319406152E0
2.063433042E1,3.788000345E0,8.838540077E0,1.357215405E0
2.065433042E1,3.807920218E0,8.809149742E0,1.316600204E0
2.067433199E1,3.811070919E0,8.906392097E0,1.289229631E0
2.069433042E1,3.802806139E0,8.909063339E0,1.339249372E0
2.071433042E1,3.754912615E0,8.893807411E0,1.300204754E0
2.073433042E1,3.798410416E0,8.920708656E0,1.263994813E0
2.075433198E1,3.849464417E0,8.921321869E0,1.308364153E0
2.077433042E1,3.800967455E0,8.907761574E0,1.359734178E0
2.079433042E1,3.724429607E0,8.858507156E0,1.339795232E0
2.081433199E1,3.697375059E0,8.863822937E0,1.339163184E0
2.083433042E1,3.719191074E0,8.879376411E0,1.329902411E0
2.085433042E1,3.763704062E0,8.925181389E0,1.363354206E0
2.087433042E1,3.793401718E0,8.935448647E0,1.387899518E0
2.089433198E1,3.778442860E0,8.912137985E0,1.361477137E0
2.091433042E1,3.740595341E0,8.911543846E0,1.369119406E0
2.093433042E1,3.729294538E0,8.920268059E0,1.337439299E0
2.095433198E1,3.751168013E0,8.902082443E0,1.363315821E0
2.097433042E1,3.766213179E0,8.918937683E0,1.371092200E0
2.099432886E1,3.776249647E0,8.918994904E0,1.376962781E0
2.101433042E1,3.760878801E0,8.885208130E0,1.388646483E0
2.103433198E1,3.764393568E0,8.888444901E0,1.407608628E0
2.105433042E1,3.780453920E0,8.863382339E0,1.453395247E0
2.107433042E1,3.796150208E0,8.874108315E0,1.403605461E0
2.109433198E1,3.773941755E0,8.893328667E0,1.378389716E0
2.111433042E1,3.775512218E0,8.929147720E0,1.396365404E0
2.113433042E1,3.745488882E0,8.904265404E0,1.414695382E0
2.115433042E1,3.718310118E0,8.884249687E0,1.421016097E0
2.117433199E1,3.706013441E0,8.905491829E0,1.476724386E0
2.119433042E1,3.736831665E0,8.901432037E0,1.431780457E0
2.121433042E1,3.724353075E0,8.902302742E0,1.415135980E0
2.123433042E1,3.731497288E0,8.871197701E0,1.441520095E0
2.125433198E1,3.776651859E0,8.848214149E0,1.467262506E0
2.127433042E1,3.789293289E0,8.864159584E0,1.474856973E0
2.129433042E1,3.769277811E0,8.893003464E0,1.417740822E0
2.131433199E1,3.737339020E0,8.895858765E0,1.406152964E0
2.133433042E1,3.755199909E0,8.865939140E0,1.436252832E0
2.135433042E1,3.753284454E0,8.877977371E0,1.461401463E0
2.137433042E1,3.779668570E0,8.858335495E0,1.471744418E0
2.139433198E1,3.786582947E0,8.882459641E0,1.413527012E0
2.141433042E1,3.771375179E0,8.874329567E0,1.438321352E0
2.143433042E1,3.764747858E0,8.881999969E0,1.474483371E0
2.145433198E1,3.788958073E0,8.892045975E0,1.461391926E0
2.147433042E1,3.760218143E0,8.863554955E0,1.440045238E0
2.149432886E1,3.781507254E0,8.880324364E0,1.433264852E0
2.151433042E1,3.819958210E0,8.867060661E0,1.487029076E0
2.153433198E1,3.814020634E0,8.864789963E0,1.434098005E0
2.155433042E1,3.803150892E0,8.839344025E0,1.421207666E0
2.157433042E1,3.798075199E0,8.843548775E0,1.426781297E0
2.159433198E1,3.792281151E0,8.869081497E0,1.424885154E0
2.161433042E1,3.815974236E0,8.843941689E0,1.355999231E0
2.163433042E1,3.820781946E0,8.863822937E0,1.396901727E0
2.165433042E1,3.817458630E0,8.873247147E0,1.418076038E0
2.167433199E1,3.795470238E0,8.899333954E0,1.433963895E0
2.169433042E1,3.789954185E0,8.871723175E0,1.383340955E0
2.171433042E1,3.772581816E0,8.874452591E0,1.425909877E0
2.173432886E1,3.784868717E0,8.853499413E0,1.451048970E0
2.175433198E1,3.775110006E0,8.874616623E0,1.416514993E0
2.177433042E1,3.790001869E0,8.876608849E0,1.405587912E0
2.179433042E1,3.769622564E0,8.853575706E0,1.435668588E0
2.181433199E1,3.761654615E0,8.859264374E0,1.440428257E0
2.183433042E1,3.785089016E0,8.893875122E0,1.431818724E0
2.185433042E1,3.784725189E0,8.913746834E0,1.413096070E0
2.187433042E1,3.746504068E0,8.909657478E0,1.432230592E0
2.189433198E1,3.725818157E0,8.878974915E0,1.466103673E0
2.191433042E1,3.734322548E0,8.897351265E0,1.416917205E0
2.193433042E1,3.729131699E0,8.884078026E0,1.438350081E0
2.195433198E1,3.718894243E0,8.867051125E0,1.445111394E0
2.197433042E1,3.762459040E0,8.845944405E0,1.417750478E0
2.199432886E1,3.769134045E0,8.872049332E0,1.478534460E0
2.201433042E1,3.740662336E0,8.886712074E0,1.471208096E0
2.203433198E1,3.702977657E0,8.911334038E0,1.427892208E0
2.205433042E1,3.696139812E0,8.918544769E0,1.463431835E0
2.207433042E1,3.778050184E0,8.886998177E0,1.492334604E0
2.209433198E1,3.767630577E0,8.890465736E0,1.482470512E0
2.211433198E1,3.769919395E0,8.870709419E0,1.501164436E0
2.213433042E1,3.742012501E0,8.840876579E0,1.517071486E0
2.215433042E1,3.761290789E0,8.862117767E0,1.518622875E0
2.217433199E1,3.781239271E0,8.901057243E0,1.439336538E0
2.219433042E1,3.759586096E0,8.882516861E0,1.475728393E0
2.221433042E1,3.716720343E0,8.890503883E0,1.476848841E0
2.223433042E1,3.711204052E0,8.895092010E0,1.498377562E0
2.225433198E1,3.759969234E0,8.882813454E0,1.479501724E0
2.227433042E1,3.767601728E0,8.872911453E0,1.480641365E0
2.229433042E1,3.747701168E0,8.865710258E0,1.470432401E0
2.231433199E1,3.701512337E0,8.874691963E0,1.448424935E0
2.233433042E1,3.714268684E0,8.890533447E0,1.449899793E0
2.235433042E1,3.731401443E0,8.901210785E0,1.482805610E0
2.237433042E1,3.751646757E0,8.884242058E0,1.443923831E0
2.239433198E1,3.752978086E0,8.892860413E0,1.436070800E0
2.241433042E1,3.734609842E0,8.887353897E0,1.442764997E0
2.243433042E1,3.736984730E0,8.882659912E0,1.457484603E0
2.245433199E1,3.725339413E0,8.917272568E0,1.483954906E0
2.247433042E1,3.753782511E0,8.893491745E0,1.484175205E0
2.249432886E1,3.706003904E0,8.909111023E0,1.463795662E0
2.251433042E1,3.681104183E0,8.917951584E0,1.466793299E0
2.253433198E1,3.708857775E0,8.906755447E0,1.484855056E0
2.255433042E1,3.705850601E0,8.904878616E0,1.442516088E0
2.257433042E1,3.699175596E0,8.901459694E0,1.485324383E0
2.259433198E1,3.765542746E0,8.880908012E0,1.447285295E0
2.261433198E1,3.710121870E0,8.905108452E0,1.340398550E0
2.263433042E1,3.737291336E0,8.878091812E0,1.378121614E0
2.265433042E1,3.734149933E0,8.934681892E0,1.427001595E0
2.267433199E1,3.734935284E0,8.960050583E0,1.350301027E0
2.269433042E1,3.729505301E0,8.928371429E0,1.390542746E0
2.271433042E1,3.709078074E0,8.858996391E0,1.388636947E0
2.273433042E1,3.760333061E0,8.834881783E0,1.407014847E0
2.275433198E1,3.762037754E0,8.895082474E0,1.425095797E0
2.277433042E1,3.753801584E0,8.883829117E0,1.387085438E0
2.279433042E1,3.714220762E0,8.906295776E0,1.381847024E0
2.281433199E1,3.710629463E0,8.879901886E0,1.413440824E0
2.283433042E1,3.747040510E0,8.861524582E0,1.458336949E0
2.285433042E1,3.775282383E0,8.887620926E0,1.473669410E0
2.287433042E1,3.734887362E0,8.925344467E0,1.406593442E0
2.289433198E1,3.737693548E0,8.864608765E0,1.416361809E0
2.291433042E1,3.705007792E0,8.895254135E0,1.423304915E0
2.293433042E1,3.747959852E0,8.935313225E0,1.417175770E0
2.295433199E1,3.691935539E0,8.943290710E0,1.421514153E0
2.297433042E1,3.717754602E0,8.928821564E0,1.453088880E0
2.299432886E1,3.737559319E0,8.908910751E0,1.392323971E0
2.301433042E1,3.736410141E0,8.913430214E0,1.424607396E0
2.303433198E1,3.697212219E0,8.893472672E0,1.404984593E0
2.305433042E1,3.707651138E0,8.880955696E0,1.421370506E0
2.307437261E1,3.707028627E0,8.882171631E0,1.407235146E0
2.309433198E1,3.686323404E0,8.886548042E0,1.405846477E0
2.311433198E1,3.701770782E0,8.884443283E0,1.418526173E0
2.313433042E1,3.764910698E0,8.907905579E0,1.406143308E0
2.315433042E1,3.754491091E0,8.902246475E0,1.423419833E0
2.317433199E1,3.732962608E0,8.888800621E0,1.384557247E0
2.319433042E1,3.724008322E0,8.909389496E0,1.398931980E0
2.321433042E1,3.709930420E0,8.890264511E0,1.379366636E0
2.323433042E1,3.715676308E0,8.904342651E0,1.416725755E0
2.325433198E1,3.713646173E0,8.917242050E0,1.419656157E0
2.327433042E1,3.665455580E0,8.901268959E0,1.456507802E0
2.329433042E1,3.674668550E0,8.909351349E0,1.430027843E0
2.331433199E1,3.680079460E0,8.932450294E0,1.425555468E0
2.333433042E1,3.765025616E0,8.934777260E0,1.441462636E0
2.335433042E1,3.818377972E0,8.923601151E0,1.456440687E0
2.337433042E1,3.781593561E0,8.912300110E0,1.448185563E0
2.339433198E1,3.770369530E0,8.889966965E0,1.404994130E0
2.341433042E1,3.758867741E0,8.926130295E0,1.389067888E0
2.343433042E1,3.762430429E0,8.854916573E0,1.454285979E0
2.345433199E1,3.768080711E0,8.819118500E0,1.441960573E0
2.347433042E1,3.813685417E0,8.828877449E0,1.409447312E0
2.349432886E1,3.809557915E0,8.846181870E0,1.430822730E0
2.351433042E1,3.801494122E0,8.910395622E0,1.410759330E0
2.353433198E1,3.747298956E0,8.900961876E0,1.437880874E0
2.355433042E1,3.752259731E0,8.915403366E0,1.421523690E0
2.357433042E1,3.738239288E0,8.894515991E0,1.446164846E0
2.359433198E1,3.715494394E0,8.899429321E0,1.452859044E0
2.361433198E1,3.713914156E0,8.888971329E0,1.493905187E0
2.363433042E1,3.745383739E0,8.883263588E0,1.458078384E0
2.365433042E1,3.763541222E0,8.902370453E0,1.443349242E0
2.367433199E1,3.742089272E0,8.891270638E0,1.464188337E0
2.369433042E1,3.723538876E0,8.884298325E0,1.492449522E0
2.371433042E1,3.760543823E0,8.881156921E0,1.457130194E0
2.373433042E1,3.768186092E0,8.879338264E0,1.462148547E0
2.375433198E1,3.745575190E0,8.899497986E0,1.451499104E0
2.377433198E1,3.714124918E0,8.873160362E0,1.439259887E0
2.379433042E1,3.694138050E0,8.856238365E0,1.413345098E0
2.381433199E1,3.706712484E0,8.886318207E0,1.424061537E0
2.383433042E1,3.715503931E0,8.918305397E0,1.451431990E0
2.385433042E1,3.716528654E0,8.930047989E0,1.413469553E0
2.387433042E1,3.731822968E0,8.914906502E0,1.428189158E0
2.389433198E1,3.748677969E0,8.875870705E0,1.419924378E0
2.391433198E1,3.762133360E0,8.874425888E0,1.457350492E0
2.393433042E1,3.759538174E0,8.878294945E0,1.438436270E0
2.395433355E1,3.717237473E0,8.881013870E0,1.434107661E0
2.397433199E1,3.757115126E0,8.865565300E0,1.444862366E0
2.399433042E1,3.758465528E0,8.890427589E0,1.427241087E0
2.401433042E1,3.758139849E0,8.886913300E0,1.420623422E0
2.403433198E1,3.756282091E0,8.874051094E0,1.428993583E0
2.405433198E1,3.707507372E0,8.875937462E0,1.407148838E0
2.407433198E1,3.747126579E0,8.877718925E0,1.466774106E0
2.409433198E1,3.750277281E0,8.873265266E0,1.436971068E0
2.411433198E1,3.742826700E0,8.876923561E0,1.441089153E0
2.413433042E1,3.754165649E0,8.906439781E0,1.418679357E0
2.415433042E1,3.797174931E0,8.903250694E0,1.424128532E0
2.417433199E1,3.724333763E0,8.878561020E0,1.452073693E0
2.419433042E1,3.765083075E0,8.847063065E0,1.436176181E0
2.421433042E1,3.781287193E0,8.877805710E0,1.424090266E0
2.423433042E1,3.791926861E0,8.882469177E0,1.393118858E0
2.425433198E1,3.772026300E0,8.908249855E0,1.424415827E0
2.427433042E1,3.761874914E0,8.904552460E0,1.406717896E0
2.429433042E1,3.775856972E0,8.896853447E0,1.462435842E0
2.431433199E1,3.779342890E0,8.899449348E0,1.361620784E0
2.433433042E1,3.773941755E0,8.873907089E0,1.368458629E0
2.435433042E1,3.736716747E0,8.849267006E0,1.403337359E0
2.437433042E1,3.760438442E0,8.845944405E0,1.412339568E0
2.439433198E1,3.761453629E0,8.887774467E0,1.420920372E0
2.441433042E1,3.758082390E0,8.924884796E0,1.404754639E0
2.443433042E1,3.728739262E0,8.904466629E0,1.362176180E0
2.445433199E1,3.716394663E0,8.895493507E0,1.367673278E0
2.447433042E1,3.784466505E0,8.901938438E0,1.368334055E0
2.449432886E1,3.791189432E0,8.900683403E0,1.393444538E0
2.451433042E1,3.755391359E0,8.878159523E0,1.402877688E0
2.453433198E1,3.770436525E0,8.863707542E0,1.378648281E0
2.455433042E1,3.772170067E0,8.875333786E0,1.406545520E0
2.457433042E1,3.805430174E0,8.877297401E0,1.377585292E0
2.459433198E1,3.771806002E0,8.873208046E0,1.395465136E0
2.461433199E1,3.759346724E0,8.857923508E0,1.371484876E0
2.463433042E1,3.743918419E0,8.905482292E0,1.389470100E0
2.465433042E1,3.736793280E0,8.924596786E0,1.382708907E0
2.467433199E1,3.761328936E0,8.916026115E0,1.386893988E0
2.469433042E1,3.714115381E0,8.891442299E0,1.381425619E0
2.471433198E1,3.714067459E0,8.881167412E0,1.391960025E0
2.473433042E1,3.710073948E0,8.873352051E0,1.397169828E0
2.475433198E1,3.716155291E0,8.873782158E0,1.387382388E0
2.477433042E1,3.736841202E0,8.902599335E0,1.403308630E0
2.479433042E1,3.747902393E0,8.928389549E0,1.384834886E0
2.481433199E1,3.798410416E0,8.902187347E0,1.388895512E0
2.483433042E1,3.746063709E0,8.891346931E0,1.413900495E0
2.485433042E1,3.793803930E0,8.914962769E0,1.372375488E0
2.487433042E1,3.784160137E0,8.885590553E0,1.337602139E0
2.489433198E1,3.722609997E0,8.858603477E0,1.357933640E0
2.491433198E1,3.693439007E0,8.872451782E0,1.336194396E0
2.493433042E1,3.734829903E0,8.895178795E0,1.353068709E0
2.495433199E1,3.718750477E0,8.903872490E0,1.345359325E0
2.497433042E1,3.712745905E0,8.931166649E0,1.335428238E0
2.499432886E1,3.718827248E0,8.928083420E0,1.369914293E0
2.501433042E1,3.722734451E0,8.927480698E0,1.367328525E0
2.503433198E1,3.717610836E0,8.906046867E0,1.361122727E0
2.505433042E1,3.701933622E0,8.877929688E0,1.380257249E0
2.507433198E1,3.703331947E0,8.876502037E0,1.399190545E0
2.509433198E1,3.734197855E0,8.922011375E0,1.386204362E0
2.511433042E1,3.743094683E0,8.918698311E0,1.414264441E0
2.513433042E1,3.746178627E0,8.912645340E0,1.390906572E0
2.515433042E1,3.714756966E0,8.890610695E0,1.406583905E0
2.517433199E1,3.694205284E0,8.917223930E0,1.401096344E0
2.519433042E1,3.718673944E0,8.917472839E0,1.389039159E0
2.521433042E1,3.708043575E0,8.908690453E0,1.425047994E0
2.523433042E1,3.685241222E0,8.909820557E0,1.407733083E0
2.525433042E1,3.692021608E0,8.908901215E0,1.393396616E0
2.527433042E1,3.682195902E0,8.936855316E0,1.383934736E0
2.529433042E1,3.744674921E0,8.923706055E0,1.370211124E0
2.531433199E1,3.684427261E0,8.901796341E0,1.396078110E0
2.533433199E1,3.715073109E0,8.889517784E0,1.391634464E0
2.535433042E1,3.688583612E0,8.898510933E0,1.366859317E0
2.537433042E1,3.760869265E0,8.910644531E0,1.346249938E0
2.539433198E1,3.744473934E0,8.908278465E0,1.340944409E0
2.541433042E1,3.732388020E0,8.900637627E0,1.359054208E0
2.543433042E1,3.684111118E0,8.920210838E0,1.377987504E0
2.545433199E1,3.696628094E0,8.918967247E0,1.324491501E0
2.547433042E1,3.694425344E0,8.893559456E0,1.369291782E0
2.549433042E1,3.749405861E0,8.872509003E0,1.377068162E0
2.551433042E1,3.762823105E0,8.902551651E0,1.410548687E0
2.553433198E1,3.758877277E0,8.919866562E0,1.364781141E0
2.555433042E1,3.776268959E0,8.897850037E0,1.339967608E0
2.557433042E1,3.717400312E0,8.895868301E0,1.357493162E0
2.559433198E1,3.767726421E0,8.922317505E0,1.333752275E0
2.561433199E1,3.734102249E0,8.899152756E0,1.390609741E0
2.563433042E1,3.694856405E0,8.880860329E0,1.358651996E0
2.565433042E1,3.677148819E0,8.885054588E0,1.365461111E0
2.567433199E1,3.723060131E0,8.920556068E0,1.381961942E0
2.569433042E1,3.767103910E0,8.933561325E0,1.321560979E0
2.571433042E1,3.659173250E0,8.952381134E0,1.316600204E0
2.573433042E1,3.662304878E0,8.911649704E0,1.319367886E0
2.575433198E1,3.715944529E0,8.912204742E0,1.359734178E0
2.577433042E1,3.752116203E0,8.943109512E0,1.355491638E0
2.579433042E1,3.744521618E0,8.927778244E0,1.349295378E0
2.581433199E1,3.697537899E0,8.898375511E0,1.350339293E0
2.583433042E1,3.686649084E0,8.903882980E0,1.339699507E0
2.585433042E1,3.707727671E0,8.927872658E0,1.334384322E0
2.587433042E1,3.654011250E0,8.966496468E0,1.328839302E0
2.589433198E1,3.645851851E0,8.959571838E0,1.341490269E0
2.591433042E1,3.684034586E0,8.934412956E0,1.310413599E0
2.593433042E1,3.688497305E0,8.956114769E0,1.335370779E0
2.595433199E1,3.700698376E0,8.950779915E0,1.325487494E0
2.597433199E1,3.679045200E0,8.930132866E0,1.300233483E0
2.599432886E1,3.663022995E0,8.924434662E0,1.317557931E0
2.601433042E1,3.689723253E0,8.922232628E0,1.318745375E0
2.603433198E1,3.704078913E0,8.931952477E0,1.344114304E0
2.605433042E1,3.738823414E0,8.920652390E0,1.310672164E0
2.607433042E1,3.771106958E0,8.916132927E0,1.309264302E0
2.609433198E1,3.679025888E0,8.913853645E0,1.332172036E0
2.611433199E1,3.660140514E0,8.917328835E0,1.329624653E0
2.613433042E1,3.678633213E0,8.923696518E0,1.317021608E0
2.615433042E1,3.705802679E0,8.937325478E0,1.302110434E0
2.617433199E1,3.684484720E0,8.962349892E0,1.310145378E0
2.619433042E1,3.669736385E0,8.934759140E0,1.340475202E0
2.621433042E1,3.663166761E0,8.913766861E0,1.324635148E0
2.623433042E1,3.673835278E0,8.925660133E0,1.337075353E0
2.625433198E1,3.694291353E0,8.863679886E0,1.361132383E0
2.627433042E1,3.711098671E0,8.918124199E0,1.392304897E0
2.629433042E1,3.751704216E0,8.926033974E0,1.314636946E0
2.631433199E1,3.777848959E0,8.918726921E0,1.292179346E0
2.633433042E1,3.741821051E0,8.876636505E0,1.354505181E0
2.635433042E1,3.788938999E0,8.914569855E0,1.315623403E0
2.637433042E1,3.779227972E0,8.941519737E0,1.346690536E0
2.639433198E1,3.720062494E0,8.887831688E0,1.325008631E0
2.641433042E1,3.733920097E0,8.888971329E0,1.314493299E0
2.643433042E1,3.753504753E0,8.925039291E0,1.325305462E0
2.645433199E1,3.747548103E0,8.931511879E0,1.348443031E0
2.647433042E1,3.723989010E0,8.913823128E0,1.340705037E0
2.649432886E1,3.737913847E0,8.907032967E0,1.388091087E0
2.651433042E1,3.767113447E0,8.869540215E0,1.364311814E0
2.653433198E1,3.770944118E0,8.890110970E0,1.389508367E0
2.655433042E1,3.794790268E0,8.874425888E0,1.418133497E0
2.657433042E1,3.757584572E0,8.882497787E0,1.392687917E0
2.659432886E1,3.771240950E0,8.889047623E0,1.394287229E0
2.661433199E1,3.788833618E0,8.915232658E0,1.374942064E0
2.663433042E1,3.769498110E0,8.912627220E0,1.375076175E0
2.665433042E1,3.726536512E0,8.890025139E0,1.366121888E0
2.667433199E1,3.743947029E0,8.861332893E0,1.370689988E0
2.669433042E1,3.762267590E0,8.902810097E0,1.405109048E0
2.671433042E1,3.777667046E0,8.908881187E0,1.389814854E0
2.673433042E1,3.751407385E0,8.888348579E0,1.366073966E0
2.675433198E1,3.730606556E0,8.891212463E0,1.369703531E0
2.677433042E1,3.744521618E0,8.863133430E0,1.389259458E0
2.679433042E1,3.769651175E0,8.887363434E0,1.385208488E0
2.681433199E1,3.766768694E0,8.887208939E0,1.393875480E0
2.683433042E1,3.772026300E0,8.882746696E0,1.384423137E0
2.685433042E1,3.772399902E0,8.879444122E0,1.388675213E0
2.687433042E1,3.764479876E0,8.889201164E0,1.397160292E0
2.689433198E1,3.778193712E0,8.885006905E0,1.403691649E0
2.691433042E1,3.798496723E0,8.886338234E0,1.384882808E0
2.693433042E1,3.800028801E0,8.848930359E0,1.411199927E0
2.695433199E1,3.796073675E0,8.843385696E0,1.430410981E0
2.697433042E1,3.836947441E0,8.855385780E0,1.430832386E0
2.699432886E1,3.809145927E0,8.848864555E0,1.434797168E0
2.701433042E1,3.803237200E0,8.871800423E0,1.436607122E0
2.703433198E1,3.740442038E0,8.909015656E0,1.453376174E0
2.705433042E1,3.699405432E0,8.878619194E0,1.428543448E0
2.707433042E1,3.698466778E0,8.878829956E0,1.491012931E0
2.709433042E1,3.742501020E0,8.875985146E0,1.458432674E0
2.711433042E1,3.738325596E0,8.840943336E0,1.486569405E0
2.713433042E1,3.770570755E0,8.902043343E0,1.448051453E0
2.715433042E1,3.818684578E0,8.909246445E0,1.455521345E0
2.717433199E1,3.798659325E0,8.867213249E0,1.459581852E0
2.719433042E1,3.775751591E0,8.825794220E0,1.458710432E0
2.721433042E1,3.822553635E0,8.826454163E0,1.456498146E0
2.723433042E1,3.829429626E0,8.831349373E0,1.487057805E0
2.725433042E1,3.781344652E0,8.838168144E0,1.468794823E0
2.727433042E1,3.761443853E0,8.855931282E0,1.452274799E0
2.729433042E1,3.753476143E0,8.917529106E0,1.465442896E0
2.731433199E1,3.792884588E0,8.901353836E0,1.442544818E0
2.733433199E1,3.806454897E0,8.904582024E0,1.449918866E0
2.735433042E1,3.811808348E0,8.851459503E0,1.461210012E0
2.737433042E1,3.791649103E0,8.838741302E0,1.492267609E0
2.739433198E1,3.782867193E0,8.834287643E0,1.467655182E0
2.741433042E1,3.784131289E0,8.849218369E0,1.475393176E0
2.743433042E1,3.755209446E0,8.869338989E0,1.434730053E0
2.745433199E1,3.787923813E0,8.868457794E0,1.456383228E0
2.747433042E1,3.806598663E0,8.871091843E0,1.445992470E0
2.749432886E1,3.803562641E0,8.885954857E0,1.425718307E0
2.751433042E1,3.742606401E0,8.868889809E0,1.451384187E0
2.753433198E1,3.728490114E0,8.872767448E0,1.444517612E0
2.755433042E1,3.744933605E0,8.890226364E0,1.434117198E0
2.757433042E1,3.769613028E0,8.887276649E0,1.466678381E0
2.759433042E1,3.775722980E0,8.876435280E0,1.435524940E0
2.761433199E1,3.777513742E0,8.866523743E0,1.433820248E0
2.763433042E1,3.724515676E0,8.862730980E0,1.442707539E0
2.765433042E1,3.718999624E0,8.892860413E0,1.448195100E0
2.767433199E1,3.752307653E0,8.907406807E0,1.421121478E0
2.769433042E1,3.760380983E0,8.904954910E0,1.406401873E0
2.771433042E1,3.740010977E0,8.893434525E0,1.432489157E0
2.773433042E1,3.732100725E0,8.886241913E0,1.441749930E0
2.775433198E1,3.759145498E0,8.875659943E0,1.404563189E0
2.777433042E1,3.766615391E0,8.902139664E0,1.415461540E0
2.779433042E1,3.759404182E0,8.920345306E0,1.435218573E0
2.781433199E1,3.759662628E0,8.881510735E0,1.417577982E0
2.783433042E1,3.753246307E0,8.872288704E0,1.419148684E0
2.785433042E1,3.775445223E0,8.860624313E0,1.414475203E0
2.787433042E1,3.770992041E0,8.887745857E0,1.446432948E0
2.789433198E1,3.749070644E0,8.938636780E0,1.381693721E0
2.791433042E1,3.727072716E0,8.905520439E0,1.454870105E0
2.793433042E1,3.687156677E0,8.892016411E0,1.407570243E0
2.795433199E1,3.718798399E0,8.853450775E0,1.398261666E0
2.797433199E1,3.780942440E0,8.849390030E0,1.400435567E0
2.799432886E1,3.801091909E0,8.888406754E0,1.419522166E0
2.801433042E1,3.751244545E0,8.898558617E0,1.411065817E0
2.803433198E1,3.738153219E0,8.902359962E0,1.407388330E0
2.805433042E1,3.757938862E0,8.879001617E0,1.356190681E0
2.807433042E1,3.764374495E0,8.883647919E0,1.397801876E0
2.809433042E1,3.772562504E0,8.902063370E0,1.388023973E0
2.811433199E1,3.753811121E0,8.889547348E0,1.368113875E0
2.813433042E1,3.748122692E0,8.880534172E0,1.366955042E0
2.815433042E1,3.792300463E0,8.892840385E0,1.405128241E0
2.817433199E1,3.748706818E0,8.891021729E0,1.413795233E0
2.819433042E1,3.705505848E0,8.891940117E0,1.392764568E0
2.821433042E1,3.755429745E0,8.921274185E0,1.374415398E0
2.823433042E1,3.781852007E0,8.925450325E0,1.423170924E0
2.825433042E1,3.754050732E0,8.901670456E0,1.390044689E0
2.827433042E1,3.716318130E0,8.898194313E0,1.379720926E0
2.829433042E1,3.676593542E0,8.937095642E0,1.389795780E0
2.831433199E1,3.656836510E0,8.917674065E0,1.397667885E0
2.833433042E1,3.658579350E0,8.885658264E0,1.371743441E0
2.835433042E1,3.748668432E0,8.905797958E0,1.394641638E0
2.837433042E1,3.763052940E0,8.933073044E0,1.394852281E0
2.839433198E1,3.721077681E0,8.959543228E0,1.376033902E0
2.841433042E1,3.626842022E0,8.937125206E0,1.358728528E0
2.843433042E1,3.651090384E0,8.917682648E0,1.380994678E0
2.845433199E1,3.668414831E0,8.903374672E0,1.405463338E0
2.847433199E1,3.684111118E0,8.899582863E0,1.380305052E0
2.849432886E1,3.699520350E0,8.934768677E0,1.413546205E0
2.851433042E1,3.736007929E0,8.917405128E0,1.399860978E0
2.853433198E1,3.713291645E0,8.913669586E0,1.389268994E0
2.855433042E1,3.729553223E0,8.903480530E0,1.399784327E0
2.857433042E1,3.745393276E0,8.916447639E0,1.425421476E0
2.859433042E1,3.750229597E0,8.896824837E0,1.396690965E0
2.861433199E1,3.716289282E0,8.897007942E0,1.409906983E0
2.863433042E1,3.739445925E0,8.918257713E0,1.377604485E0
2.865433042E1,3.781449795E0,8.888071060E0,1.427087784E0
2.867433199E1,3.768339157E0,8.865154266E0,1.433887362E0
2.869433042E1,3.727513313E0,8.842600822E0,1.395130038E0
2.871433042E1,3.791371584E0,8.875592232E0,1.389987230E0
2.873433042E1,3.746868134E0,8.927661896E0,1.402753115E0
2.875433198E1,3.735557795E0,8.906536102E0,1.394105315E0
2.877433042E1,3.703494787E0,8.918525696E0,1.392295241E0
2.879433042E1,3.738162756E0,8.917875290E0,1.410606146E0
2.881433199E1,3.771260262E0,8.889651299E0,1.390226722E0
2.883433042E1,3.779295206E0,8.895646095E0,1.402781844E0
2.885433042E1,3.786037207E0,8.866839409E0,1.394363880E0
2.887433042E1,3.751378775E0,8.867788315E0,1.414484739E0
2.889433198E1,3.752029896E0,8.879001617E0,1.402322173E0
2.891433042E1,3.734303236E0,8.913143158E0,1.387851596E0
2.893433042E1,3.728154898E0,8.907857895E0,1.392362356E0
2.895433199E1,3.702766895E0,8.911736488E0,1.395474792E0
2.897433199E1,3.731276989E0,8.886961937E0,1.386367202E0
2.899432886E1,3.717553377E0,8.926092148E0,1.411199927E0
2.901433042E1,3.717093706E0,8.936751366E0,1.361218572E0
2.903433198E1,3.684379339E0,8.895742416E0,1.384183764E0
2.905433042E1,3.685116768E0,8.904821396E0,1.399564028E0
2.907433042E1,3.677915096E0,8.922404289E0,1.396298409E0
2.909433042E1,3.709930420E0,8.932344437E0,1.393444538E0
2.911433199E1,3.700267315E0,8.922097206E0,1.378389716E0
2.913433042E1,3.709710121E0,8.900387764E0,1.385007262E0
2.915433042E1,3.711127520E0,8.900243759E0,1.377547026E0
2.917433199E1,3.729016781E0,8.917328835E0,1.402197719E0
2.919433042E1,3.740681410E0,8.891145706E0,1.378926039E0
2.921433042E1,3.721288443E0,8.901995659E0,1.375095367E0
2.923433042E1,3.770292997E0,8.910969734E0,1.369004488E0
2.925433198E1,3.744655848E0,8.889210701E0,1.376167893E0
2.927433042E1,3.762123823E0,8.894295692E0,1.362674236E0
2.929433042E1,3.762286663E0,8.891126633E0,1.379251599E0
2.931433199E1,3.762296200E0,8.870660782E0,1.403164983E0
2.933433042E1,3.743228912E0,8.891567230E0,1.380563736E0
2.935433042E1,3.731257915E0,8.912300110E0,1.367730737E0
2.937433042E1,3.722188711E0,8.901535988E0,1.371724248E0
2.939433198E1,3.709815264E0,8.898021698E0,1.376924515E0
2.941433042E1,3.714843273E0,8.926130295E0,1.358144403E0
2.943433042E1,3.724027395E0,8.931444168E0,1.385361671E0
2.945433199E1,3.672092438E0,8.919578552E0,1.427825212E0
2.947433199E1,3.640067577E0,8.876741409E0,1.366121888E0
2.949432886E1,3.695564985E0,8.909475327E0,1.381109595E0
2.951433042E1,3.716538191E0,8.961323738E0,1.363813877E0
2.953433198E1,3.708465099E0,8.979731560E0,1.384700894E0
2.955433042E1,3.692193985E0,8.948817253E0,1.395216227E0
2.957433042E1,3.696484566E0,8.916572571E0,1.417118311E0
2.959433042E1,3.736879349E0,8.867854118E0,1.416074514E0
2.961433199E1,3.748247147E0,8.870230675E0,1.390992880E0
2.963433042E1,3.789120913E0,8.889364243E0,1.387095094E0
2.965433042E1,3.748764277E0,8.872528076E0,1.413833499E0
2.967433199E1,3.763167858E0,8.898844719E0,1.361544132E0
2.969433042E1,3.789628506E0,8.931627274E0,1.416792750E0
2.971433042E1,3.757000208E0,8.913832664E0,1.355271339E0
2.973433042E1,3.714584589E0,8.918630600E0,1.366629481E0
2.975433198E1,3.721029758E0,8.899497986E0,1.336634874E0
2.977433042E1,3.727589846E0,8.900177956E0,1.369483352E0
2.979433042E1,3.697518826E0,8.899180412E0,1.362214565E0
2.981433199E1,3.684034586E0,8.909034729E0,1.354754210E0
2.983433042E1,3.730664015E0,8.908182144E0,1.369119406E0
2.985433042E1,3.740336657E0,8.934001923E0,1.395091653E0
2.987433042E1,3.782445908E0,8.903700829E0,1.378159881E0
2.989433198E1,3.777896881E0,8.896853447E0,1.380649924E0
2.991433042E1,3.755027533E0,8.884594917E0,1.365547299E0
2.993433199E1,3.723433495E0,8.890887260E0,1.383934736E0
2.995433199E1,3.744301558E0,8.886452675E0,1.384930730E0
2.997433199E1,3.726737499E0,8.910470963E0,1.417558908E0
2.999432886E1,3.765121460E0,8.911046028E0,1.400818586E0
3.001433042E1,3.781124353E0,8.901000023E0,1.364484191E0
3.003433198E1,3.776479483E0,8.882219315E0,1.392381430E0
3.005433042E1,3.724975348E0,8.856142998E0,1.382488608E0
3.007433042E1,3.716471195E0,8.878820419E0,1.417530179E0
3.009433042E1,3.713981390E0,8.901968002E0,1.376139164E0
3.011433199E1,3.722495079E0,8.961668968E0,1.381569266E0
3.013433042E1,3.690690517E0,8.946002960E0,1.373448133E0
3.015433042E1,3.698562622E0,8.932182312E0,1.403011680E0
3.017433199E1,3.703801155E0,8.931828499E0,1.362961531E0
3.019433042E1,3.731621742E0,8.928581238E0,1.345627546E0
3.021433042E1,3.719966888E0,8.883349419E0,1.376886129E0
3.023433042E1,3.736266613E0,8.816149712E0,1.377623558E0
3.025433042E1,3.761261940E0,8.855481148E0,1.370891094E0
3.027433199E1,3.789944410E0,8.894353867E0,1.380726457E0
3.029433042E1,3.751503229E0,8.890015602E0,1.361429214E0
3.031433199E1,3.739896059E0,8.913000107E0,1.349659324E0
3.033433042E1,3.743477821E0,8.948663712E0,1.360825896E0
3.035433042E1,3.776374102E0,8.922825813E0,1.374041915E0
3.037433042E1,3.761807919E0,8.918544769E0,1.377183080E0
3.039433198E1,3.751809597E0,8.881024361E0,1.370919824E0
3.041433042E1,3.739168406E0,8.838213921E0,1.399353385E0
3.043433042E1,3.734351158E0,8.874721527E0,1.371293306E0
3.045433199E1,3.765447140E0,8.919224739E0,1.378887773E0
3.047433199E1,3.744387627E0,8.924665451E0,1.389403105E0
3.049432886E1,3.717093706E0,8.892457008E0,1.354629636E0
3.051433042E1,3.721230984E0,8.898739815E0,1.376445651E0
3.053433198E1,3.749693155E0,8.884968758E0,1.385218024E0
3.055433042E1,3.718166351E0,8.884462357E0,1.403356433E0
3.057433042E1,3.702862501E0,8.896853447E0,1.385735154E0
3.059433042E1,3.699750185E0,8.915145874E0,1.402848959E0
3.061433199E1,3.715274096E0,8.900004387E0,1.382316232E0
3.063433042E1,3.735749483E0,8.912099838E0,1.391893029E0
3.065433042E1,3.764451027E0,8.904075623E0,1.397773147E0
3.067433199E1,3.752805710E0,8.905261993E0,1.398003101E0
3.069433042E1,3.714804888E0,8.907646179E0,1.408460975E0
3.071433042E1,3.724305153E0,8.924176216E0,1.383752704E0
3.073433042E1,3.741543293E0,8.888875961E0,1.376302004E0
3.075433042E1,3.777216911E0,8.903862953E0,1.371571064E0
3.077433042E1,3.787866354E0,8.871762276E0,1.378150344E0
3.079433042E1,3.786190510E0,8.866791725E0,1.380812645E0
3.081433199E1,3.753380299E0,8.869109154E0,1.363584042E0
3.083433042E1,3.741418839E0,8.894209862E0,1.350387216E0
3.085433042E1,3.758915663E0,8.900923729E0,1.341873407E0
3.087433042E1,3.755151987E0,8.893559456E0,1.346824646E0
3.089433198E1,3.752661943E0,8.894689560E0,1.364311814E0
3.091433042E1,3.730577946E0,8.913181305E0,1.321053386E0
3.093433042E1,3.737425327E0,8.907015800E0,1.341231704E0
3.095433199E1,3.706999779E0,8.873966217E0,1.359102011E0
3.097433199E1,3.720244408E0,8.859254837E0,1.334001303E0
3.099432886E1,3.738660812E0,8.873276711E0,1.337717056E0
3.101433042E1,3.775301695E0,8.899812698E0,1.387334466E0
3.103433198E1,3.710744381E0,8.905529976E0,1.399994969E0
3.105433042E1,3.709671736E0,8.929414749E0,1.374032259E0
3.107433042E1,3.737693548E0,8.954438210E0,1.382756829E0
3.109433042E1,3.733077526E0,8.947112083E0,1.378791928E0
3.111433042E1,3.710188866E0,8.903298378E0,1.386903524E0
3.113433042E1,3.690977812E0,8.903767586E0,1.364072442E0
3.115433042E1,3.696570635E0,8.872385979E0,1.377355456E0
3.117433199E1,3.730309725E0,8.904112816E0,1.361074924E0
3.119433042E1,3.776201725E0,8.932968140E0,1.385840535E0
3.121433042E1,3.752144814E0,8.906908989E0,1.383388877E0
3.123433042E1,3.753973961E0,8.890925407E0,1.350913882E0
3.125433198E1,3.788029194E0,8.892916679E0,1.328207254E0
3.127433042E1,3.835750341E0,8.846814156E0,1.370958090E0
3.129433042E1,3.749357939E0,8.870852470E0,1.376723409E0
3.131433199E1,3.776594400E0,8.883512497E0,1.318151593E0
3.133433042E1,3.727704763E0,8.901412010E0,1.353346348E0
3.135433042E1,3.743468285E0,8.896308899E0,1.324673414E0
3.137433042E1,3.729945898E0,8.900588989E0,1.332057118E0
3.139433198E1,3.727838993E0,8.882450104E0,1.313372850E0
3.141433042E1,3.714488745E0,8.874011993E0,1.345579624E0
3.143433042E1,3.719066620E0,8.878312111E0,1.321637630E0
3.145433199E1,3.736764431E0,8.889804840E0,1.340283632E0
3.147433199E1,3.765466213E0,8.931991577E0,1.379232526E0
3.149432886E1,3.799837351E0,8.924903870E0,1.342141509E0
3.151433042E1,3.730759859E0,8.904160500E0,1.374511123E0
3.153433198E1,3.705505848E0,8.889258385E0,1.364024520E0
3.155433042E1,3.676095486E0,8.920546532E0,1.333455324E0
3.157433042E1,3.677809715E0,8.944258690E0,1.336941361E0
3.159433042E1,3.692289829E0,8.933868408E0,1.343501449E0
3.161433199E1,3.711893559E0,8.881999969E0,1.376483917E0
3.163433042E1,3.801417589E0,8.883829117E0,1.366533637E0
3.165433042E1,3.835424662E0,8.907923698E0,1.353566647E0
3.167433199E1,3.792961121E0,8.915931702E0,1.344803929E0
3.169433042E1,3.745824099E0,8.855078697E0,1.344909191E0
3.171433042E1,3.725856543E0,8.837869644E0,1.333541512E0
3.173433042E1,3.766759157E0,8.867164612E0,1.349199653E0
3.175433198E1,3.767008066E0,8.908738136E0,1.307722449E0
3.177433042E1,3.743085146E0,8.914225578E0,1.322729349E0
3.179433042E1,3.734705448E0,8.941337585E0,1.326157808E0
3.181433199E1,3.757306814E0,8.936405182E0,1.341040254E0
3.183433042E1,3.771605015E0,8.909131050E0,1.338004351E0
3.185433042E1,3.740240812E0,8.897389412E0,1.334135294E0
3.187433042E1,3.709374905E0,8.859810829E0,1.326694131E0
3.189433198E1,3.737118959E0,8.886596680E0,1.328255177E0
3.191433042E1,3.740451574E0,8.905635834E0,1.328235984E0
3.193433042E1,3.718635559E0,8.926675797E0,1.327335835E0
3.195433199E1,3.685413599E0,8.919053078E0,1.306362629E0
3.197433199E1,3.727532387E0,8.911276817E0,1.313755870E0
3.199432886E1,3.782579899E0,8.920258522E0,1.327211261E0
3.201433042E1,3.755400896E0,8.915699959E0,1.344535708E0
3.203433198E1,3.722724915E0,8.891021729E0,1.313966513E0
3.205433042E1,3.723634720E0,8.899879456E0,1.322892189E0
3.207433042E1,3.720186949E0,8.889144897E0,1.339699507E0
3.209433042E1,3.748199224E0,8.891567230E0,1.353815675E0
3.211433042E1,3.758005857E0,8.916046143E0,1.329289436E0
3.213433042E1,3.736276150E0,8.920556068E0,1.355529904E0
3.215433042E1,3.747730017E0,8.897983551E0,1.339919686E0
3.217433198E1,3.739455700E0,8.912023544E0,1.346451044E0
3.219433042E1,3.736438990E0,8.889698982E0,1.343712091E0
3.221433042E1,3.758139849E0,8.876120567E0,1.354371071E0
3.223433042E1,3.748457909E0,8.886425018E0,1.379194140E0
3.225433198E1,3.746073246E0,8.902973175E0,1.327479482E0
3.227433042E1,3.762775183E0,8.887315750E0,1.341940403E0
3.229433042E1,3.733087063E0,8.892131805E0,1.377671480E0
3.231433198E1,3.788747311E0,8.882833481E0,1.364139438E0
3.233433042E1,3.765552282E0,8.888674736E0,1.348299384E0
3.235433042E1,3.725894928E0,8.906947136E0,1.376244545E0
3.237433042E1,3.708685398E0,8.945656776E0,1.323275208E0
3.239433198E1,3.739628077E0,8.930890083E0,1.351680040E0
3.241433042E1,3.706454039E0,8.894344330E0,1.364196897E0
3.243433042E1,3.734887362E0,8.861410141E0,1.351718307E0
3.245433042E1,3.769833326E0,8.885189056E0,1.337324381E0
3.247433198E1,3.760926723E0,8.895359039E0,1.358843446E0
3.249432886E1,3.738105297E0,8.889804840E0,1.346862912E0
3.251433042E1,3.705180168E0,8.916600227E0,1.371120930E0
3.253433198E1,3.732196331E0,8.926685333E0,1.347686529E0
3.255433042E1,3.763311386E0,8.920412064E0,1.347973824E0
3.257433042E1,3.741303921E0,8.909513474E0,1.342160702E0
3.259433042E1,3.727388859E0,8.860729218E0,1.351507664E0
3.261433198E1,3.741141081E0,8.856717110E0,1.348433495E0
3.263433042E1,3.743535280E0,8.916725159E0,1.363698959E0
3.265433042E1,3.753150463E0,8.920824051E0,1.360586405E0
3.267433198E1,3.722351313E0,8.933484077E0,1.350138187E0
3.269433042E1,3.720484018E0,8.949028015E0,1.353001595E0
3.271433042E1,3.742999077E0,8.958643913E0,1.349142194E0
3.273433042E1,3.711385965E0,8.940101624E0,1.363660574E0
3.275433198E1,3.696532249E0,8.902982712E0,1.344334602E0
3.277433042E1,3.668960810E0,8.879911423E0,1.382009745E0
3.279433042E1,3.708263874E0,8.898021698E0,1.384576321E0
3.281433198E1,3.705017328E0,8.913449287E0,1.377479911E0
3.283433042E1,3.736783743E0,8.895761490E0,1.342907667E0
3.285433042E1,3.745776176E0,8.914848328E0,1.338205457E0
3.287433042E1,3.688478231E0,8.918535233E0,1.346479774E0
3.289433198E1,3.755448818E0,8.897610664E0,1.348481417E0
3.291433042E1,3.752901316E0,8.893759727E0,1.367893577E0
3.293433042E1,3.774171591E0,8.910979271E0,1.360682249E0
3.295432886E1,3.748994112E0,8.896785736E0,1.363909602E0
3.297433198E1,3.767285824E0,8.868620872E0,1.364943862E0
3.299432886E1,3.782742739E0,8.857321739E0,1.366619825E0
3.301433042E1,3.778241634E0,8.851526260E0,1.395742893E0
3.303433198E1,3.785127401E0,8.842849731E0,1.426924944E0
3.305437261E1,3.802164555E0,8.889698982E0,1.437842607E0
3.307433042E1,3.769411802E0,8.911879539E0,1.411592484E0
3.309433042E1,3.757507801E0,8.898827553E0,1.472453117E0
3.311433198E1,3.764786243E0,8.901087761E0,1.358948827E0
3.313433042E1,3.782522440E0,8.897475243E0,1.368755460E0
3.315433042E1,3.751780987E0,8.880027771E0,1.408422589E0
3.317433198E1,3.743200064E0,8.825314522E0,1.388301730E0
3.319433042E1,3.743717194E0,8.852848053E0,1.396566510E0
3.321433042E1,3.755381823E0,8.891462326E0,1.389450908E0
3.323433042E1,3.732809305E0,8.920862198E0,1.353853941E0
3.325433198E1,3.728260279E0,8.907025337E0,1.345531702E0
3.327433042E1,3.769229889E0,8.900004387E0,1.403844953E0
3.329433042E1,3.785615921E0,8.927834511E0,1.427106977E0
3.331433198E1,3.790011644E0,8.882345200E0,1.422347307E0
3.333433198E1,3.761558771E0,8.862884521E0,1.421035290E0
3.335433042E1,3.768588305E0,8.795033455E0,1.462493300E0
3.337432886E1,3.790260553E0,8.816398621E0,1.499105334E0
3.339433198E1,3.805344105E0,8.841853142E0,1.496979356E0
3.341433042E1,3.771796465E0,8.871599197E0,1.482307673E0
3.343433042E1,3.748630285E0,8.887372017E0,1.464466095E0
3.345433042E1,3.730654478E0,8.876684189E0,1.419895649E0
3.347433198E1,3.726153374E0,8.892294884E0,1.454400897E0
3.349432886E1,3.718492031E0,8.840570450E0,1.481321216E0
3.351433042E1,3.701339960E0,8.886692047E0,1.499517202E0
3.353433198E1,3.634474754E0,8.914761543E0,1.447706699E0
3.355433042E1,3.605552673E0,8.940696716E0,1.413565397E0
3.357433042E1,3.574676991E0,8.936539650E0,1.447256565E0
3.359433042E1,3.599940777E0,8.926273346E0,1.488743305E0
3.361433198E1,3.568356276E0,8.899381638E0,1.371475339E0
3.363433042E1,3.605313301E0,8.879385948E0,1.340666652E0
3.365433042E1,3.743726969E0,8.903135300E0,1.395120382E0
3.367433198E1,3.890797853E0,8.903960228E0,1.326426029E0
3.369433042E1,3.924211264E0,8.867308617E0,1.316035151E0
3.371433042E1,3.929047585E0,8.814951897E0,1.349305034E0
3.373433042E1,3.980848551E0,8.798029900E0,1.364828944E0
3.375433198E1,3.998594284E0,8.885696411E0,1.336519957E0
3.377433042E1,3.920706272E0,8.883311272E0,1.290838599E0
3.379433042E1,3.868953228E0,8.856104851E0,1.238041639E0
3.381433198E1,3.858820915E0,8.959458351E0,1.258737087E0
3.383433198E1,3.744962215E0,9.040878296E0,1.234843016E0
3.385433042E1,3.618280172E0,8.982164383E0,1.222575068E0
3.387433042E1,3.554967880E0,8.813285828E0,1.233463883E0
3.389433198E1,3.649625063E0,8.824672699E0,1.295119405E0
3.391433042E1,3.720100880E0,8.897676468E0,1.351929069E0
3.393433042E1,3.720378637E0,8.917137146E0,1.305356979E0
3.395433042E1,3.698342323E0,8.931243896E0,1.231931686E0
3.397433198E1,3.850000620E0,8.956344604E0,1.208861113E0
3.399432886E1,3.898277283E0,8.948156357E0,1.250098825E0
3.401433042E1,3.779419661E0,8.913344383E0,1.334058762E0
3.403433198E1,3.719622135E0,9.006038666E0,1.293931842E0
3.405433042E1,3.676057100E0,9.016122818E0,1.275419950E0
3.407433042E1,3.438274622E0,9.045705795E0,1.314885974E0
3.409433042E1,3.540813446E0,8.842351913E0,1.198642612E0
3.411433198E1,3.383658171E0,8.942304611E0,1.268878937E0
3.413433042E1,3.397467852E0,8.986051559E0,1.425957799E0
3.415433042E1,3.531610250E0,8.927010536E0,1.374693155E0
3.417433198E1,3.646665812E0,8.999421120E0,1.334164023E0
3.419433042E1,3.804587364E0,9.028342247E0,1.311945915E0
3.421433042E1,3.897252560E0,9.011611938E0,1.234172583E0
3.423433042E1,3.806368828E0,8.895024300E0,1.215804338E0
3.425433198E1,3.823310137E0,8.778963089E0,1.320871472E0
3.427433042E1,3.794522285E0,8.857587814E0,1.377116084E0
3.429433042E1,3.778845072E0,8.891700745E0,1.392007947E0
3.431433198E1,3.726680040E0,8.884987831E0,1.397495508E0
3.433433198E1,3.653273821E0,8.862462997E0,1.315546751E0
3.435433042E1,3.686313868E0,8.803526878E0,1.220602274E0
3.437433042E1,3.823635817E0,8.832545280E0,1.259886384E0
3.439433198E1,3.998747587E0,8.896460533E0,1.334738612E0
3.441433042E1,4.152302265E0,8.819730759E0,1.296824098E0
3.443433042E1,4.116436958E0,8.735569954E0,1.184871197E0
3.445433042E1,4.007644653E0,8.773638725E0,1.239114285E0
3.447433198E1,3.963284731E0,8.852982521E0,1.225792885E0
3.449432886E1,3.873348951E0,8.923179626E0,1.125830173E0
3.451433042E1,3.842961788E0,8.905759811E0,1.140770078E0
3.453433198E1,4.101870537E0,8.897811890E0,1.156121612E0
3.455433042E1,4.243042469E0,8.911535263E0,1.296910286E0
3.457433042E1,4.027631283E0,8.900971413E0,1.293328524E0
3.459433042E1,3.805430174E0,8.894832611E0,1.211638451E0
3.461433198E1,3.682004452E0,8.905108452E0,1.212481141E0
3.463433042E1,3.680299759E0,8.903461456E0,1.218926311E0
3.465433042E1,3.695660830E0,8.946863174E0,1.234670639E0
3.467433198E1,3.672159433E0,8.989134789E0,1.264205456E0
3.469433042E1,3.687108755E0,8.959245682E0,1.240838051E0
3.471433042E1,3.744569540E0,8.955904007E0,1.290216088E0
3.473433042E1,3.770302534E0,8.975498199E0,1.323409319E0
3.475433198E1,3.807134867E0,8.930210114E0,1.313162088E0
3.477433042E1,3.912106276E0,8.858335495E0,1.377221346E0
3.479433042E1,3.891180992E0,8.788367271E0,1.440619826E0
3.481433198E1,3.936718702E0,8.793519020E0,1.424578667E0
3.483433199E1,3.860592604E0,8.856860161E0,1.401201725E0
3.485433042E1,3.718070507E0,8.789755821E0,1.485745788E0
3.487433042E1,3.635700464E0,8.833724022E0,1.398539305E0
3.489433198E1,3.765686512E0,8.991491318E0,1.379069686E0
3.491433042E1,3.947099924E0,9.049823761E0,1.447965264E0
3.493433042E1,3.884381294E0,8.931166649E0,1.473880053E0
3.495432886E1,3.663320065E0,8.753708839E0,1.501719832E0
3.497433198E1,3.552583456E0,8.704254150E0,1.545323014E0
3.499432886E1,3.687338591E0,8.778483391E0,1.562015414E0
3.501433042E1,3.880416632E0,8.861667633E0,1.476437092E0
3.503433198E1,3.811865807E0,8.832305908E0,1.457044005E0
3.505433042E1,3.697087765E0,8.847848892E0,1.462809324E0
3.507433042E1,3.687817574E0,8.883886337E0,1.500043869E0
3.509433042E1,3.778519392E0,8.906248093E0,1.542804360E0
3.511433198E1,3.824143410E0,8.867750168E0,1.437957525E0
3.513433042E1,3.895174503E0,8.930419922E0,1.374195099E0
3.515433042E1,3.941870928E0,8.900109291E0,1.545236826E0
3.517433198E1,3.627904892E0,8.768955231E0,1.612925768E0
3.519433042E1,3.290360928E0,8.837918282E0,1.524914861E0
3.521433042E1,3.510311365E0,9.070049286E0,1.451642752E0
3.523433042E1,3.789982796E0,9.062062263E0,1.512694836E0
3.525433198E1,3.892732382E0,8.898893356E0,1.491443992E0
3.527433042E1,3.722734451E0,8.867691994E0,1.381052136E0
3.529433042E1,3.593821049E0,8.925728798E0,1.416447997E0
3.531433198E1,3.812009573E0,8.880928040E0,1.407407522E0
3.533433199E1,3.814059019E0,8.875526428E0,1.386654496E0
3.535433042E1,3.581658602E0,8.931569099E0,1.474109888E0
3.537433042E1,3.520864964E0,8.915922165E0,1.592306852E0
3.539433198E1,3.643917322E0,8.958814621E0,1.538341522E0
3.541433042E1,3.773721457E0,9.050992012E0,1.458509326E0
3.543433042E1,3.790691614E0,9.058635712E0,1.414953947E0
3.545433042E1,3.627378225E0,9.002305031E0,1.449363470E0
3.547433198E1,3.524485111E0,8.920507431E0,1.475239992E0
3.549432886E1,3.467474222E0,8.918956757E0,1.546864867E0
3.551433042E1,3.376149893E0,8.951806068E0,1.554669976E0
3.553433198E1,3.406881809E0,8.895733833E0,1.532739162E0
3.555433042E1,3.531466484E0,8.803029060E0,1.619217753E0
3.557433042E1,3.608655691E0,8.885362625E0,1.627760172E0
3.559433042E1,3.581045628E0,9.007934570E0,1.528439164E0
3.561433198E1,3.533774614E0,8.961927414E0,1.511727571E0
3.563433042E1,3.559401989E0,8.925373077E0,1.570778251E0
3.565433042E1,3.474915504E0,8.902667046E0,1.590659618E0
3.567433198E1,3.462101698E0,8.813602448E0,1.572789311E0
3.569433042E1,3.589004040E0,8.743357658E0,1.668777704E0
3.571433042E1,3.763665676E0,8.764023781E0,1.712160587E0
3.573433042E1,3.889782667E0,8.736546516E0,1.666191936E0
3.575433198E1,3.907135963E0,8.763553619E0,1.680681586E0
3.577433042E1,3.936488867E0,8.757444382E0,1.721881032E0
3.579433042E1,3.926576853E0,8.726950645E0,1.718481302E0
3.581433198E1,3.889294386E0,8.664473534E0,1.702172041E0
3.583433199E1,3.875427008E0,8.636009216E0,1.661202431E0
3.585433042E1,3.949321747E0,8.650480270E0,1.732587934E0
3.587433042E1,3.925906420E0,8.751602173E0,1.815417767E0
3.589433198E1,3.892215252E0,8.870353699E0,1.733334899E0
3.591433042E1,3.858839989E0,8.882019043E0,1.655274391E0
3.593433042E1,3.749616623E0,8.785943985E0,1.723671913E0
3.595433042E1,3.694751024E0,8.774127960E0,1.760657549E0
3.597433198E1,3.701043129E0,8.804820061E0,1.755696774E0
3.599432886E1,3.697432518E0,8.884374619E0,1.754202724E0
3.601433042E1,3.625319242E0,8.947102547E0,1.796972752E0
3.603433198E1,3.499154329E0,8.984566689E0,1.777436137E0
3.605433042E1,3.401020765E0,8.962962151E0,1.793458104E0
3.607433042E1,3.238713026E0,9.046329498E0,1.883834481E0
3.609433042E1,3.101812601E0,9.166048050E0,1.853054523E0
3.611433198E1,3.070563555E0,9.249451637E0,1.783651471E0
3.613433042E1,3.101056099E0,9.138572693E0,1.799654365E0
3.615433042E1,3.234394073E0,9.007973671E0,1.893238902E0
3.617433198E1,3.282891035E0,8.985715866E0,2.047387123E0
3.619433042E1,3.305559158E0,8.977576256E0,2.102080345E0
3.621433042E1,3.351058722E0,8.958345413E0,1.948018193E0
3.623433042E1,3.415606260E0,8.904802322E0,1.904817224E0
3.625433198E1,3.546329737E0,8.908346176E0,2.010152578E0
3.627433042E1,3.758034706E0,8.917751312E0,2.010008812E0
3.629433042E1,3.777791500E0,8.987746239E0,1.887875795E0
3.631433198E1,3.713904619E0,9.074474335E0,1.733593464E0
3.633433199E1,3.647834301E0,8.892189026E0,1.778786421E0
3.635433042E1,3.541675329E0,8.729939461E0,1.825626612E0
3.637433042E1,3.587864399E0,8.703727722E0,1.752210855E0
3.639433198E1,3.609728098E0,8.767604828E0,1.685719013E0
3.641433042E1,3.635882378E0,8.853825569E0,1.628478527E0
3.643433042E1,3.635528088E0,8.981454849E0,1.504066229E0
3.645432886E1,3.652277946E0,8.964838982E0,1.478821754E0
3.647433198E1,3.594070196E0,8.781970024E0,1.563672185E0
3.649432886E1,3.610283613E0,8.778590202E0,1.535573840E0
3.651433042E1,3.639090776E0,8.840340614E0,1.555101037E0
3.653433198E1,3.769450188E0,8.822566032E0,1.668566942E0
3.655433042E1,3.857681274E0,8.846880913E0,1.632041097E0
3.657433042E1,3.732340097E0,8.903518677E0,1.648331165E0
3.659433042E1,3.720158339E0,8.997735023E0,1.661537647E0
3.661433198E1,3.802490234E0,9.011697769E0,1.854931593E0
3.663433042E1,3.941210270E0,8.893454552E0,2.015400648E0
3.665433042E1,4.045434475E0,8.768190384E0,1.673106432E0
3.667433198E1,4.167854786E0,8.788950920E0,1.735508800E0
3.669433042E1,4.196288586E0,8.953615189E0,1.944062948E0
3.671433042E1,4.081501007E0,9.179897308E0,1.955852032E0
3.673433042E1,3.841257095E0,9.393258095E0,2.027410030E0
3.675433198E1,3.706798792E0,9.096529961E0,2.147742510E0
3.677433042E1,3.747864008E0,8.541593552E0,1.897500515E0
3.679433042E1,4.089717865E0,8.020872116E0,2.255117655E0
3.681433198E1,4.565847874E0,8.213041306E0,2.861808300E0
3.683433199E1,4.890817642E0,8.311193466E0,2.450206757E0
3.685433042E1,4.560101509E0,8.065089226E0,1.982647896E0
3.687433042E1,3.754950762E0,8.155091286E0,1.873347878E0
3.689433198E1,3.315394640E0,8.279771805E0,1.744501472E0
3.691433042E1,3.180371284E0,8.177348137E0,1.617580056E0
3.693433042E1,2.961981773E0,8.289530754E0,1.538782120E0
3.695433042E1,2.656874180E0,8.756447792E0,1.286174655E0
3.697433198E1,2.685671806E0,9.048645973E0,1.102874637E0
3.699432886E1,2.874535799E0,8.911574364E0,1.390331984E0
3.701433042E1,3.348415375E0,8.525130272E0,1.699298978E0
3.703433198E1,4.002482414E0,8.160818100E0,1.565453529E0
3.705433042E1,4.547623158E0,7.896076679E0,1.430056572E0
3.707433042E1,4.873665333E0,8.234760284E0,2.193318605E0
3.709433042E1,4.668807983E0,9.293669701E0,2.848257065E0
3.711433198E1,4.531180859E0,9.684258461E0,1.707056165E0
3.713433042E1,4.484789848E0,9.750299454E0,9.613294005E-1
3.715433042E1,4.429780483E0,9.204604149E0,1.458739161E0
3.717433198E1,4.340601444E0,8.524065971E0,1.895901203E0
3.719433042E1,3.876853943E0,8.355590820E0,2.136805773E0
3.721433042E1,3.363680840E0,8.389109612E0,2.386204958E0
3.723433042E1,3.379530430E0,8.232040405E0,2.462829113E0
3.725433198E1,3.686649084E0,8.023421288E0,2.380468369E0
3.727433042E1,3.801695347E0,8.119436264E0,2.071942091E0
3.729433042E1,3.606002808E0,8.591429710E0,1.505301595E0
3.731433198E1,3.492795467E0,9.118824005E0,1.534932256E0
3.733433199E1,3.596349478E0,9.415102959E0,1.756089449E0
3.735433042E1,3.643131971E0,9.442262650E0,1.888057828E0
3.737433042E1,3.522445202E0,9.437176704E0,2.383188248E0
3.739433198E1,3.157932758E0,8.935850143E0,2.162289619E0
3.741433042E1,3.012259960E0,8.456357956E0,2.089697361E0
3.743433042E1,2.941286325E0,8.794055939E0,1.938537121E0
3.745432886E1,2.733900547E0,9.381161690E0,1.641866803E0
3.747433198E1,2.433954954E0,9.969273567E0,1.632720947E0
3.749432886E1,2.315585613E0,1.012779045E1,1.694625497E0
3.751433042E1,2.456996679E0,9.888771057E0,1.766307831E0
3.753433198E1,2.637902498E0,9.310188293E0,1.749040842E0
3.755433042E1,2.867822647E0,8.915797234E0,1.583065271E0
3.757433042E1,3.097234964E0,8.751391411E0,1.618719697E0
3.759433042E1,3.228552103E0,8.892457008E0,1.752316117E0
3.761433198E1,3.329185247E0,9.079808235E0,1.464217067E0
3.763433042E1,3.296901703E0,9.019656181E0,1.198336244E0
3.765433042E1,3.041191578E0,9.034759521E0,1.425220370E0
3.767433198E1,2.852394342E0,9.145008087E0,1.553654909E0
3.769433042E1,2.780788660E0,8.998406410E0,1.614831567E0
3.771433042E1,2.801100969E0,8.996490479E0,1.679704785E0
3.773433042E1,2.910314798E0,9.125884056E0,1.670922875E0
3.775433198E1,3.010315895E0,9.166911125E0,1.671392083E0
3.777433042E1,3.187927246E0,9.117541313E0,1.832502723E0
3.779433042E1,3.225047112E0,8.989768982E0,1.868454099E0
3.781433198E1,3.219253063E0,9.027836800E0,2.026557684E0
3.783433199E1,3.177268267E0,9.063441277E0,2.229298592E0
3.785433042E1,3.086327076E0,9.047601700E0,2.219702721E0
3.787433042E1,2.892243385E0,9.142057419E0,2.153296947E0
3.789433198E1,2.740451097E0,9.265609741E0,2.036383390E0
3.791433042E1,2.752843380E0,9.265178680E0,1.962402582E0
3.793433042E1,2.781765461E0,9.146512032E0,1.844320536E0
3.795433042E1,2.785193920E0,9.110589981E0,1.742653131E0
3.797433198E1,2.735174179E0,9.143581390E0,1.662198424E0
3.799432886E1,2.750171423E0,9.154957771E0,1.531063199E0
3.801433042E1,2.733029127E0,9.166364670E0,1.484835982E0
3.803433198E1,2.826038837E0,9.200897217E0,1.439355731E0
3.805433042E1,2.831449747E0,9.288641930E0,1.368362784E0
3.807433042E1,2.803543091E0,9.336026192E0,1.327623129E0
3.809433042E1,2.830061197E0,9.332320213E0,1.299065113E0
3.811433042E1,2.910487175E0,9.290776253E0,1.397715688E0
3.813433042E1,2.968005419E0,9.176601410E0,1.523679495E0
3.815433042E1,2.888958693E0,9.127251625E0,1.542948008E0
3.817433198E1,2.795287848E0,9.150523186E0,1.624322176E0
3.819433042E1,2.705179691E0,9.157257080E0,1.708703399E0
3.821433042E1,2.647967815E0,9.128163338E0,1.746091247E0
3.823433042E1,2.662764072E0,9.102869034E0,1.925589323E0
3.825433198E1,2.703656912E0,9.060961723E0,1.946303964E0
3.827433042E1,2.814230680E0,9.023967743E0,1.841054797E0
3.829433042E1,2.921308994E0,9.084214211E0,1.794243455E0
3.831432886E1,2.995826244E0,9.131034851E0,1.691024542E0
3.833433199E1,3.046889782E0,9.175127983E0,1.726851463E0
3.835433042E1,3.076683044E0,9.165722847E0,1.717523575E0
3.837433042E1,3.068504572E0,9.091856003E0,1.658674121E0
3.839433198E1,3.019011497E0,9.127893448E0,1.591655612E0
3.841433042E1,2.914088011E0,9.186179161E0,1.586091518E0
3.843433042E1,2.839034796E0,9.283526421E0,1.590123415E0
3.845432886E1,2.761749744E0,9.256059647E0,1.574187517E0
3.847433198E1,2.752489090E0,9.195697784E0,1.574810028E0
3.849432886E1,2.731477499E0,9.188658714E0,1.632960439E0
3.851433042E1,2.699117422E0,9.182817459E0,1.647344828E0
3.853433198E1,2.690048218E0,9.199221611E0,1.617991924E0
3.855433042E1,2.694568634E0,9.250936508E0,1.619907260E0
3.857433042E1,2.728977919E0,9.250591278E0,1.534884334E0
3.859432886E1,2.771518230E0,9.252526283E0,1.598704219E0
3.861433198E1,2.755438805E0,9.205591202E0,1.614764452E0
3.863433042E1,2.825655937E0,9.171525955E0,1.577194691E0
3.865433042E1,2.861999750E0,9.148292542E0,1.592249393E0
3.867433198E1,2.904492140E0,9.138190269E0,1.616315961E0
3.869433199E1,2.921155691E0,9.126265526E0,1.591138482E0
3.871433042E1,2.879659414E0,9.178018570E0,1.572147727E0
3.873433042E1,2.773127079E0,9.194262505E0,1.601778388E0
3.875433198E1,2.736984253E0,9.200582504E0,1.630307674E0
3.877433042E1,2.783106089E0,9.210283279E0,1.589673281E0
3.879433042E1,2.824592829E0,9.204402924E0,1.565223694E0
3.881432886E1,2.765025139E0,9.214429855E0,1.578659892E0
3.883433199E1,2.729581356E0,9.185239792E0,1.617129922E0
3.885433042E1,2.754758835E0,9.142795563E0,1.609698296E0
3.887433042E1,2.812248468E0,9.173871994E0,1.586043596E0
3.889433198E1,2.797997952E0,9.215886116E0,1.595045805E0
3.891433042E1,2.796245575E0,9.236753464E0,1.560780048E0
3.893433042E1,2.812564373E0,9.208329201E0,1.584683776E0
3.895433042E1,2.856713533E0,9.171832085E0,1.626687646E0
3.897433198E1,2.890079021E0,9.116832733E0,1.620137095E0
3.899432886E1,2.872812033E0,9.112992287E0,1.623354912E0
3.901433042E1,2.855956793E0,9.155206680E0,1.594097733E0
3.903433198E1,2.838967562E0,9.206834793E0,1.561364174E0
3.905433042E1,2.846284389E0,9.203570366E0,1.579349399E0
3.907433042E1,2.844014645E0,9.187950134E0,1.592891097E0
3.909433042E1,2.788153172E0,9.162016869E0,1.600198150E0
3.911433198E1,2.774391174E0,9.194539070E0,1.591042757E0
3.913433042E1,2.737118244E0,9.184081078E0,1.628124118E0
3.915433042E1,2.773289919E0,9.143905640E0,1.680423021E0
3.917433198E1,2.759326935E0,9.157046318E0,1.663941383E0
3.919433199E1,2.784600019E0,9.151299477E0,1.655695796E0
3.921433042E1,2.840308428E0,9.128727913E0,1.651319146E0
3.923433042E1,2.838938951E0,9.108425140E0,1.659287095E0
3.925433198E1,2.869057894E0,9.129119873E0,1.650706291E0
3.927433042E1,2.883241177E0,9.200447083E0,1.669017076E0
3.929433042E1,2.897319078E0,9.193322182E0,1.677808642E0
3.931433042E1,2.894972801E0,9.172684669E0,1.604019284E0
3.933433199E1,2.858954430E0,9.176304817E0,1.618518591E0
3.935433042E1,2.848247528E0,9.170998573E0,1.653751612E0
3.937433042E1,2.888575554E0,9.139289856E0,1.689300776E0
3.939433198E1,2.891209126E0,9.143445969E0,1.648963213E0
3.941433042E1,2.850067139E0,9.158779144E0,1.661518455E0
3.943433042E1,2.817611456E0,9.170166016E0,1.659152985E0
3.945433042E1,2.790777206E0,9.151012421E0,1.663452983E0
3.947433042E1,2.851829290E0,9.140716553E0,1.692499399E0
3.949432886E1,2.895375013E0,9.120471954E0,1.660599113E0
3.951433042E1,2.915103197E0,9.123230934E0,1.654335856E0
3.953433198E1,2.899971962E0,9.133852005E0,1.654393315E0
3.955433042E1,2.867401123E0,9.119447708E0,1.671468735E0
3.957433042E1,2.870159388E0,9.152342796E0,1.656739593E0
3.959433042E1,2.849205256E0,9.136063576E0,1.665665150E0
3.961433198E1,2.893249035E0,9.140573502E0,1.679695249E0
3.963433042E1,2.903668642E0,9.121419907E0,1.681313753E0
3.965433042E1,2.914777756E0,9.117081642E0,1.670942068E0
3.967433198E1,2.888240337E0,9.127452850E0,1.657955885E0
3.969433199E1,2.863465071E0,9.177501678E0,1.640966654E0
3.971433042E1,2.830760241E0,9.184435844E0,1.657199264E0
3.973433042E1,2.841831207E0,9.163298607E0,1.650524259E0
3.975433042E1,2.861013412E0,9.181293488E0,1.597114444E0
3.977433042E1,2.841974735E0,9.163634300E0,1.636666656E0
3.979433042E1,2.853648901E0,9.149489403E0,1.635182261E0
3.981433042E1,2.874411345E0,9.131274223E0,1.651568174E0
3.983433199E1,2.841304302E0,9.164697647E0,1.645190001E0
3.985433042E1,2.824401379E0,9.195304871E0,1.660426736E0
3.987433042E1,2.792711735E0,9.187432289E0,1.646971226E0
3.989433198E1,2.787664652E0,9.190746307E0,1.650016665E0
3.991433042E1,2.813196421E0,9.169342995E0,1.643887520E0
3.993433042E1,2.804644346E0,9.168231010E0,1.635603666E0
3.995433042E1,2.822859526E0,9.183602333E0,1.584702849E0
3.997433198E1,2.825636625E0,9.231447220E0,1.603119135E0
3.999432886E1,2.819306374E0,9.187547684E0,1.584760308E0
4.001433042E1,2.751809120E0,9.174800873E0,1.628478527E0
4.003433198E1,2.772399187E0,9.174035072E0,1.615798831E0
4.005433042E1,2.820312023E0,9.177185059E0,1.590448976E0
4.007433042E1,2.806645870E0,9.180863380E0,1.648675919E0
4.009432886E1,2.815571547E0,9.175414085E0,1.646683931E0
4.011433198E1,2.821164370E0,9.154105186E0,1.630930185E0
4.013433042E1,2.828107595E0,9.133631706E0,1.657515287E0
4.015433042E1,2.820465326E0,9.156595230E0,1.626467347E0
4.017433198E1,2.832809687E0,9.186140060E0,1.616718173E0
4.019433199E1,2.814805269E0,9.221248627E0,1.622406721E0
4.021433042E1,2.826249599E0,9.192815781E0,1.601625085E0
4.023433042E1,2.814594746E0,9.179552078E0,1.654249668E0
4.025433198E1,2.834485769E0,9.143389702E0,1.628133655E0
4.027433042E1,2.824506760E0,9.155955315E0,1.639472604E0
4.029433042E1,2.858686209E0,9.173995972E0,1.625059605E0
4.031432886E1,2.837195873E0,9.178823471E0,1.637164593E0
4.033433199E1,2.821844339E0,9.170117378E0,1.655657411E0
4.035433042E1,2.813368797E0,9.166976929E0,1.636101604E0
4.037433042E1,2.853964806E0,9.139088631E0,1.636273980E0
4.039433198E1,2.901896954E0,9.135852814E0,1.631543040E0
4.041433042E1,2.874420881E0,9.155848503E0,1.625854373E0
4.043433042E1,2.847098351E0,9.167474747E0,1.609669566E0
4.045433042E1,2.819948196E0,9.196587563E0,1.617618322E0
4.047433042E1,2.828327894E0,9.183382034E0,1.639424801E0
4.049432886E1,2.822658300E0,9.174303055E0,1.633247733E0
4.051433042E1,2.801694632E0,9.188400269E0,1.614055753E0
4.053433198E1,2.785940886E0,9.191320419E0,1.630556583E0
4.055433042E1,2.773041010E0,9.175270081E0,1.637959480E0
4.057433042E1,2.777350426E0,9.176984787E0,1.622416377E0
4.059433042E1,2.793535233E0,9.166671753E0,1.637681723E0
4.061433198E1,2.815801382E0,9.173067093E0,1.605273843E0
4.063433042E1,2.852288961E0,9.170701981E0,1.597947598E0
4.065433042E1,2.826738119E0,9.189244270E0,1.600782394E0
4.067433198E1,2.808484554E0,9.165924072E0,1.615712643E0
4.069433199E1,2.789082050E0,9.159028053E0,1.610052705E0
4.071433042E1,2.811855793E0,9.197173119E0,1.619725227E0
4.073433042E1,2.805956364E0,9.211040497E0,1.618441939E0
4.075433198E1,2.803849459E0,9.185661316E0,1.601462245E0
4.077433042E1,2.809356213E0,9.165702820E0,1.618058920E0
4.079433042E1,2.805965900E0,9.160666466E0,1.639357686E0
4.081433042E1,2.810419083E0,9.141865730E0,1.629110575E0
4.083433199E1,2.786659241E0,9.163366318E0,1.642929912E0
4.085433042E1,2.776459932E0,9.185087204E0,1.618757963E0
4.087433042E1,2.812258005E0,9.221180916E0,1.610483646E0
4.089433198E1,2.829189777E0,9.200207710E0,1.621832132E0
4.091433042E1,2.836133003E0,9.188649178E0,1.609861135E0
4.093433042E1,2.810534000E0,9.148273468E0,1.631476045E0
4.095432886E1,2.832934141E0,9.155369759E0,1.623900771E0
4.097433042E1,2.835290194E0,9.156194687E0,1.610186815E0
4.099433042E1,2.799645185E0,9.203522682E0,1.643609881E0
4.101433042E1,2.800947666E0,9.164467812E0,1.631418586E0
4.103433198E1,2.810754299E0,9.191550255E0,1.610196352E0
4.105433042E1,2.824640751E0,9.188486099E0,1.633582950E0
4.107433042E1,2.799702644E0,9.205992699E0,1.613174677E0
4.109433042E1,2.771594763E0,9.189493179E0,1.604574800E0
4.111433198E1,2.781334400E0,9.201836586E0,1.607438207E0
4.113433042E1,2.802968502E0,9.201625824E0,1.596271634E0
4.115433042E1,2.795766592E0,9.185871124E0,1.583572865E0
4.117433198E1,2.780376673E0,9.180863380E0,1.606317759E0
4.119433042E1,2.786074877E0,9.182060242E0,1.613567352E0
4.121433042E1,2.756875277E0,9.180279732E0,1.640277147E0
4.123433042E1,2.774055958E0,9.202075958E0,1.638093591E0
4.125433198E1,2.788986206E0,9.195419312E0,1.610378265E0
4.127433042E1,2.807584524E0,9.201711655E0,1.589864731E0
4.129433042E1,2.787396431E0,9.163501740E0,1.652037382E0
4.131432886E1,2.802901506E0,9.151616096E0,1.631121635E0
4.133433199E1,2.824085236E0,9.181361198E0,1.611690283E0
4.135433042E1,2.777225971E0,9.186982155E0,1.632510304E0
4.137433042E1,2.787386894E0,9.190909386E0,1.591406703E0
4.139433198E1,2.765743494E0,9.200763702E0,1.594748974E0
4.141433042E1,2.803045034E0,9.198407173E0,1.613739729E0
4.143433042E1,2.789896011E0,9.169408798E0,1.666000366E0
4.145433042E1,2.833068371E0,9.159497261E0,1.620721221E0
4.147433042E1,2.836966038E0,9.169974327E0,1.603138208E0
4.149432886E1,2.808992147E0,9.200112343E0,1.648465276E0
4.151433199E1,2.789704561E0,9.137872696E0,1.651979923E0
4.153433198E1,2.820484400E0,9.148542404E0,1.638103127E0
4.155433042E1,2.830118656E0,9.183726311E0,1.624015689E0
4.157433042E1,2.808944464E0,9.212380409E0,1.622176886E0
4.159433042E1,2.811836481E0,9.194318771E0,1.608893871E0
4.161433042E1,2.780874729E0,9.160139084E0,1.613979220E0
4.163433042E1,2.781439781E0,9.173499107E0,1.629819274E0
4.165433042E1,2.781152487E0,9.187415123E0,1.606164455E0
4.167433198E1,2.824496984E0,9.182328224E0,1.622588754E0
4.169433199E1,2.831890345E0,9.196492195E0,1.630480051E0
4.171433042E1,2.813388109E0,9.194337845E0,1.625117064E0
4.173432886E1,2.821192980E0,9.160694122E0,1.653359056E0
4.175433198E1,2.804318666E0,9.154421806E0,1.632002711E0
4.177433042E1,2.810141563E0,9.142403603E0,1.626017213E0
4.179433042E1,2.811587572E0,9.173220634E0,1.649384618E0
4.181433042E1,2.800832748E0,9.190429688E0,1.625423431E0
4.183433199E1,2.787367821E0,9.188083649E0,1.610014439E0
4.185433042E1,2.797040462E0,9.183152199E0,1.617474675E0
4.187433042E1,2.814489365E0,9.174868584E0,1.618317485E0
4.189433198E1,2.794464111E0,9.173298836E0,1.615406156E0
4.191433042E1,2.801254272E0,9.168757439E0,1.637595534E0
4.193433042E1,2.778624296E0,9.181188583E0,1.604411960E0
4.195433042E1,2.783939362E0,9.186053276E0,1.620299935E0
4.197433042E1,2.785289526E0,9.214276314E0,1.606576324E0
4.199432886E1,2.802537441E0,9.186188698E0,1.625231981E0
4.201433042E1,2.821691036E0,9.183870316E0,1.631150365E0
4.203433198E1,2.798630238E0,9.176802635E0,1.637815833E0
4.205433042E1,2.807804823E0,9.185747147E0,1.627702713E0
4.207433042E1,2.798591852E0,9.193293571E0,1.617580056E0
4.209433042E1,2.815236330E0,9.200619698E0,1.617264032E0
4.211433042E1,2.804424047E0,9.221009254E0,1.591693997E0
4.213433042E1,2.822744608E0,9.176258087E0,1.628871083E0
4.215433042E1,2.821116447E0,9.139002800E0,1.633611679E0
4.217433198E1,2.808312178E0,9.130604744E0,1.626572728E0
4.219433199E1,2.812554836E0,9.167005539E0,1.626764178E0
4.221433042E1,2.758934259E0,9.188344002E0,1.643379927E0
4.223433042E1,2.758551121E0,9.181485176E0,1.647229910E0
4.225433198E1,2.808551788E0,9.208042145E0,1.659143448E0
4.227433042E1,2.846992970E0,9.185614586E0,1.627348423E0
4.229433042E1,2.823386192E0,9.184282303E0,1.600906849E0
4.231432886E1,2.817764521E0,9.169390678E0,1.649030328E0
4.233433199E1,2.821490049E0,9.141578674E0,1.607399940E0
4.235433042E1,2.804156065E0,9.186848640E0,1.604498148E0
4.237433042E1,2.810553312E0,9.209200859E0,1.618058920E0
4.239433198E1,2.782675266E0,9.172185898E0,1.610292077E0
4.241433042E1,2.808992147E0,9.171449661E0,1.632012367E0
4.243433042E1,2.786410093E0,9.174350739E0,1.642709613E0
4.245433042E1,2.772044897E0,9.187931061E0,1.613040686E0
4.247433042E1,2.779783010E0,9.179828644E0,1.610339999E0
4.249432886E1,2.782244205E0,9.172483444E0,1.623594284E0
4.251433042E1,2.776718378E0,9.168107033E0,1.619639039E0
4.253433198E1,2.795326233E0,9.189587593E0,1.614180326E0
4.255433042E1,2.813608170E0,9.195458412E0,1.610847592E0
4.257433042E1,2.812899590E0,9.170194626E0,1.608865142E0
4.259433042E1,2.816874027E0,9.172703743E0,1.628842354E0
4.261433198E1,2.786563396E0,9.179187775E0,1.636704922E0
4.263433042E1,2.794828176E0,9.191464424E0,1.659842491E0
4.265433042E1,2.775214911E0,9.175079346E0,1.636724114E0
4.267433198E1,2.797634125E0,9.206365585E0,1.632653952E0
4.269433199E1,2.788909674E0,9.163414001E0,1.630614042E0
4.271433042E1,2.795412302E0,9.179916382E0,1.619026184E0
4.273433042E1,2.792673349E0,9.187576294E0,1.623929501E0
