"Time (s)","Gyroscope x (rad/s)","Gyroscope y (rad/s)","Gyroscope z (rad/s)"
1.582136000E-2,-7.520623505E-2,-1.070934013E-1,-5.026548170E-3
3.581354700E-2,-2.443460980E-4,2.984513063E-3,-2.385865152E-2
5.581042200E-2,2.563888580E-2,4.181808978E-2,-1.998401992E-2
7.581042200E-2,-1.481784508E-2,-1.143190637E-2,-1.123992074E-2
9.581198500E-2,-2.768092230E-2,-3.632030264E-2,-1.396263367E-3
1.158104220E-1,-6.632251199E-3,1.780235791E-3,-3.089232836E-3
1.358119850E-1,2.478367416E-3,1.802925020E-2,-7.487462368E-3
1.558119850E-1,-9.721484035E-3,-4.956734832E-3,-1.115265395E-2
1.758104220E-1,-9.878563695E-3,-1.384046115E-2,-1.385791413E-2
1.958104220E-1,-5.602506921E-3,-3.228859045E-3,-1.357866172E-2
2.158104220E-1,3.019419499E-3,3.682644805E-3,-6.143558770E-3
2.358119850E-1,2.268928103E-3,-8.377580671E-4,-6.824237294E-3
2.558104220E-1,-4.293509759E-3,-6.161012221E-3,-1.391027402E-2
2.758104220E-1,-1.954768784E-3,-3.543018363E-3,-1.663298719E-2
2.958104220E-1,5.759586347E-4,4.223696887E-3,-1.317723561E-2
3.158104220E-1,3.717551241E-3,-5.305801053E-3,-8.115780540E-3
3.358104220E-1,5.585053470E-3,-7.871435024E-3,-7.278022822E-3
3.558104220E-1,5.550147034E-3,1.919862116E-4,-8.866272867E-3
3.758119850E-1,8.307767101E-3,-1.605702913E-3,-8.447393775E-3
3.958104220E-1,1.230457146E-2,-2.495820867E-3,-6.422811653E-3
4.158104220E-1,9.616764262E-3,-7.801621687E-3,-8.970992640E-3
4.358104220E-1,1.050688233E-2,-2.181661548E-3,-1.551597659E-2
4.558104220E-1,2.216568217E-3,-1.031489577E-2,-2.153736353E-2
4.758104220E-1,-1.274090377E-3,-1.424188633E-2,-2.350958437E-2
4.958088600E-1,-8.150687441E-3,-4.468042869E-3,-1.356120780E-2
5.158119850E-1,-5.113814492E-3,-1.003564335E-2,-2.024581842E-2
5.358104220E-1,3.141592606E-4,-1.199041214E-2,-1.923352852E-2
5.558104220E-1,-5.375613924E-3,-1.420698036E-2,-1.544616371E-2
5.758088600E-1,-1.989675453E-3,-2.520255372E-2,-1.059414819E-2
5.958119850E-1,7.819075137E-3,-2.293362655E-2,-1.446877979E-2
6.158104220E-1,2.769837528E-2,-1.954768784E-3,-2.872812003E-2
6.358104220E-1,2.270673402E-2,-1.254891697E-2,-2.352703735E-2
6.558119850E-1,-2.642428502E-2,-3.523819894E-2,-3.230604529E-2
6.758119850E-1,1.003564335E-2,-5.131268129E-2,-2.640683204E-2
6.958104220E-1,2.637192421E-2,-8.943066746E-2,-4.462806880E-2
7.158104220E-1,5.044001341E-2,5.192354321E-2,-7.906341553E-2
7.358119850E-1,1.206371561E-1,1.699601561E-1,-1.025555432E-1
7.558104220E-1,1.775174439E-1,1.743758470E-1,-7.869689912E-2
7.758104220E-1,1.417556405E-1,1.442689151E-1,-6.988298148E-2
7.958104220E-1,1.278104633E-1,1.528559327E-1,-1.430820972E-1
8.158119850E-1,8.646360785E-2,3.204424679E-2,-1.709550023E-1
8.358104220E-1,8.667305112E-2,1.185078546E-1,-1.708677262E-1
8.558104220E-1,1.667138487E-1,2.669132054E-1,-1.824392676E-1
8.758119850E-1,2.639985085E-1,3.883531988E-1,-2.012364566E-1
8.958104220E-1,3.022910357E-1,4.477642179E-1,-1.541998386E-1
9.158104220E-1,1.470090896E-1,9.817477316E-2,-1.437976807E-1
9.358104220E-1,-5.789257213E-2,-1.725956053E-1,-2.062281072E-1
9.558119850E-1,-7.548549026E-2,-1.927018017E-1,-1.230631620E-1
9.758104220E-1,5.864306167E-2,-9.796532989E-2,-4.038691893E-2
9.958088600E-1,2.435257882E-1,2.142042518E-1,-8.518952131E-2
1.015811985E0,3.631855547E-1,5.095139742E-1,-1.231678873E-1
1.035810422E0,2.649933398E-1,2.837730944E-1,-3.048741221E-1
1.055810422E0,3.492403775E-2,-3.049090132E-2,-4.343949854E-1
1.075810422E0,1.593485661E-2,-5.695009232E-2,-4.164704680E-1
1.095811985E0,1.706582904E-1,7.084291428E-2,-3.868871331E-1
1.115810422E0,2.920110226E-1,2.862339914E-1,-2.993065119E-1
1.135810422E0,2.571568191E-1,2.536486983E-1,-1.504997462E-1
1.155811985E0,4.675737023E-2,-2.262993902E-1,-1.062730998E-1
1.175810422E0,-6.928957254E-2,-3.777416050E-1,-3.752457723E-2
1.195810422E0,9.108873457E-2,-1.349663138E-1,-1.031489577E-2
1.215810422E0,2.550100684E-1,1.670803726E-1,-7.262314856E-2
1.235811985E0,2.812772691E-1,2.724633515E-1,-1.473581493E-1
1.255810422E0,2.676287889E-1,2.281668931E-1,-1.067094281E-1
1.275810422E0,2.654122114E-1,2.241526395E-1,-4.630358517E-2
1.295810422E0,1.694191098E-1,1.228013635E-1,-1.880941391E-1
1.315811985E0,8.520697057E-2,9.121090919E-2,-3.953345418E-1
1.335810422E0,1.865407825E-1,2.446427941E-1,-4.122991264E-1
1.355810422E0,3.120648563E-1,3.931179643E-1,-4.340633750E-1
1.375811985E0,2.296678722E-1,9.211847931E-2,-6.987425685E-1
1.395810422E0,8.065166324E-2,-3.133389652E-1,-8.593652248E-1
1.415810422E0,6.843435764E-2,-1.055226028E-1,-1.029150844E0
1.435808860E0,4.314453900E-2,7.697250843E-1,-1.348860264E0
1.455811985E0,5.621705651E-1,1.165792704E0,-3.001739502E0
1.475810422E0,1.130362511E0,1.467507720E0,-3.577157021E0
1.495808860E0,7.934092283E-1,2.451087952E0,-1.171325326E0
1.515811985E0,5.522570610E-1,2.541810274E0,8.101643920E-1
1.535810422E0,7.857297659E-1,1.443055630E0,2.992017865E-1
1.555810422E0,5.037893057E-1,1.476496220E0,1.697158217E-1
1.575808860E0,6.242519021E-1,1.089399576E0,1.687035263E-1
1.595811985E0,5.003858805E-1,5.310164094E-1,2.108532190E-1
1.615810422E0,3.489262164E-1,4.302585721E-1,3.260798752E-1
1.635810422E0,3.893829584E-1,3.455053866E-1,4.588121474E-1
1.655811985E0,4.591961205E-1,2.235417664E-1,5.023581386E-1
1.675811985E0,4.356690943E-1,1.563815027E-1,3.944793046E-1
1.695810422E0,3.670951128E-1,3.808831871E-1,2.650282383E-1
1.715810422E0,3.825761676E-1,8.212297559E-1,2.422167957E-1
1.735811985E0,6.145129800E-1,1.826748848E0,2.780483961E-1
1.755810422E0,9.106604457E-1,3.073647022E0,1.037598252E-1
1.775810422E0,7.108377218E-1,2.096506834E0,1.888620704E-1
1.795810422E0,5.026897192E-1,8.447393775E-2,3.389429450E-1
1.815811985E0,7.731808722E-2,-6.007074118E-1,5.313829184E-1
1.835810422E0,-2.439970337E-2,-4.656189382E-1,5.166523457E-1
1.855810422E0,3.580717444E-1,-8.171631396E-2,2.943672240E-1
1.875811985E0,6.142162681E-1,8.258025050E-1,8.133234084E-2
1.895810422E0,5.801125169E-1,1.375511408E0,2.186897583E-2
1.915810422E0,5.008571148E-1,1.072173238E0,1.951278187E-2
1.935808860E0,3.913202584E-1,5.761855245E-1,2.426007763E-3
1.955811985E0,3.760486245E-1,5.986828208E-1,5.871287733E-2
1.975810422E0,3.180513382E-1,5.699023604E-1,5.105087906E-2
1.995808860E0,3.964340985E-1,6.972241402E-1,1.719149388E-2
2.015811985E0,4.695110321E-1,7.521321774E-1,3.792600334E-2
2.035810422E0,6.071302295E-1,7.337363958E-1,3.913028166E-2
2.055810422E0,6.920928359E-1,8.394510150E-1,-3.228859231E-2
2.075810422E0,7.250970602E-1,1.002133131E0,-1.333431602E-1
2.095811985E0,7.082720399E-1,1.108877540E0,-1.542347521E-1
2.115810422E0,6.565753818E-1,1.114322901E0,-1.465029418E-1
2.135810422E0,6.478836536E-1,9.830217957E-1,-1.979552358E-1
2.155811985E0,5.697976351E-1,7.902327180E-1,-2.241177261E-1
2.175811985E0,4.462108612E-1,4.608716369E-1,-1.949532777E-1
2.195810422E0,3.588745892E-1,1.557182819E-1,-2.096489519E-1
2.215810422E0,2.760238349E-1,-5.597271025E-2,-2.429672778E-1
2.235811985E0,2.157750577E-1,-1.305157244E-1,-2.736501694E-1
2.255810422E0,1.507266313E-1,1.905899495E-2,-2.421993464E-1
2.275810422E0,1.514247656E-1,-9.135053307E-2,-2.338566631E-1
2.295810422E0,8.107054234E-2,-3.571467102E-1,-1.907819360E-1
2.315811985E0,-1.598721556E-2,-4.659680128E-1,-2.308896035E-1
2.335810422E0,-1.067966968E-1,-4.670326412E-1,-2.594955564E-1
2.355810422E0,-2.536486983E-1,-4.764225185E-1,-2.786941826E-1
2.375811985E0,-4.329289198E-1,-5.886297226E-1,-1.807637513E-1
2.395810422E0,-5.599714518E-1,-7.669849396E-1,-6.661921740E-2
2.415810422E0,-5.420469046E-1,-8.567297459E-1,4.241149873E-3
2.435810422E0,-4.727224410E-1,-8.077558279E-1,2.548180707E-2
2.455811985E0,-4.160690308E-1,-6.294530034E-1,-1.769763790E-2
2.475810422E0,-3.870791197E-1,-2.165604532E-1,-1.110902056E-1
2.495808860E0,-4.016526341E-1,7.965682447E-2,-2.335425019E-1
2.515811985E0,-3.044726849E-1,2.062106431E-1,-3.240552843E-1
2.535810422E0,-1.225570217E-1,4.297175109E-1,-2.808409333E-1
2.555810422E0,-4.134684801E-2,7.268074751E-1,-1.472359747E-1
2.575810422E0,-1.640609466E-2,1.034875512E0,-9.412560612E-2
2.595811985E0,5.131267942E-3,1.105002880E0,-1.302539259E-1
2.615810422E0,5.934119690E-4,9.325468540E-1,-1.326624751E-1
2.635810422E0,1.449321359E-1,9.563182592E-1,-6.963863969E-2
2.655811985E0,2.045176774E-1,1.020703435E0,5.689773243E-3
2.675811985E0,1.755277663E-1,8.402538300E-1,-8.831365965E-3
2.695810422E0,1.480737329E-1,5.517334938E-1,-8.703956753E-2
2.715810422E0,4.183554277E-2,3.209834993E-1,-1.334304214E-1
2.735811985E0,-5.021312088E-2,2.875081003E-1,-1.450892240E-1
2.755810422E0,-8.379326016E-2,4.053352773E-1,-1.484227926E-1
2.775810422E0,-6.667158008E-2,4.503996670E-1,-7.169812173E-2
2.795810422E0,-3.659955412E-2,3.085218370E-1,5.248204991E-2
2.815811985E0,-6.791076064E-2,1.190140024E-1,1.051560864E-1
2.835810422E0,-1.620014608E-1,3.490658477E-2,8.965755999E-2
2.855810422E0,-1.867851317E-1,1.068839654E-1,4.534365237E-2
2.875811985E0,-1.617920250E-1,2.385516018E-1,1.249655709E-2
2.895810422E0,-1.167974323E-1,2.180090696E-1,4.274311289E-2
2.915810422E0,-1.296081543E-1,8.321730047E-2,7.405432314E-2
2.935810422E0,-1.745852828E-1,-1.115265414E-1,1.113694608E-1
2.955811985E0,-2.179218084E-1,-2.964267135E-1,1.357691586E-1
2.975810422E0,-2.775771618E-1,-4.241499007E-1,1.263443828E-1
2.995808860E0,-3.490309417E-1,-5.624846816E-1,1.089434549E-1
3.015811985E0,-4.149171114E-1,-7.517831326E-1,8.998917788E-2
3.035810422E0,-5.217137933E-1,-9.272236228E-1,3.469714522E-2
3.055810422E0,-5.988399386E-1,-1.138041973E0,1.380555425E-2
3.075810422E0,-6.163804531E-1,-1.296570182E0,2.679080330E-2
3.095811985E0,-5.958030224E-1,-1.303708553E0,3.127630055E-2
3.115852610E0,-5.599889159E-1,-1.250580788E0,-1.830850355E-2
3.135810422E0,-5.481206775E-1,-1.257422447E0,-8.888962120E-2
3.155810422E0,-5.313829184E-1,-1.173768878E0,-1.422792375E-1
3.175811985E0,-4.980820715E-1,-1.071597219E0,-1.761037260E-1
3.195810422E0,-4.153360128E-1,-9.467887282E-1,-1.795594692E-1
3.215810422E0,-3.577401340E-1,-8.304974437E-1,-1.972920150E-1
3.235811985E0,-3.054326177E-1,-8.316493630E-1,-2.222502232E-1
3.255810422E0,-2.756398618E-1,-9.058607817E-1,-2.297900468E-1
3.275810422E0,-3.133215010E-1,-9.596343637E-1,-2.248333097E-1
3.295810422E0,-3.135483861E-1,-1.027213573E0,-1.844638437E-1
3.315811985E0,-3.570943773E-1,-1.031594276E0,-1.430995464E-1
3.335810422E0,-3.772354722E-1,-1.192967415E0,-1.394343525E-1
3.355810422E0,-3.294658065E-1,-1.425061345E0,-1.333082467E-1
3.375811985E0,-3.609340787E-1,-1.429930806E0,-1.165007278E-1
3.395810422E0,-4.336445034E-1,-1.382457852E0,-9.098401666E-2
3.415810422E0,-4.565781355E-1,-1.363625765E0,-1.071806699E-1
3.435810422E0,-4.390201271E-1,-1.297547579E0,-1.084024012E-1
3.455811985E0,-4.051432908E-1,-1.148252130E0,-8.543386310E-2
3.475810422E0,-3.444232643E-1,-1.014088631E0,-8.948303014E-2
3.495808860E0,-3.575306833E-1,-9.691289663E-1,-7.255333662E-2
3.515811985E0,-4.828628004E-1,-1.091668487E0,-9.293878078E-2
3.535810422E0,-6.404834986E-1,-1.243494749E0,-1.878672391E-1
3.555810422E0,-6.965957880E-1,-1.377204418E0,-2.918713987E-1
3.575810422E0,-6.231174469E-1,-1.333134890E0,-3.031811416E-1
3.595811985E0,-5.191133022E-1,-1.234837890E0,-2.349038571E-1
3.615810422E0,-5.407902598E-1,-9.850114584E-1,-1.137954667E-1
3.635810422E0,-5.590289831E-1,-9.015498161E-1,4.028219730E-2
3.655810422E0,-4.740488827E-1,-8.770803213E-1,1.556659192E-1
3.675811985E0,-3.528357744E-1,-8.278445601E-1,1.600815952E-1
3.695810422E0,-3.113318384E-1,-9.414654970E-1,8.377580671E-4
3.715810422E0,-2.635447085E-1,-1.076885581E0,-2.220931500E-1
3.735811985E0,-1.468345523E-1,-1.020249605E0,-3.045425117E-1
3.755810422E0,-6.330309063E-2,-9.194568992E-1,-3.264638484E-1
3.775810422E0,4.139921069E-2,-1.034561396E0,-1.608146429E-1
3.795810422E0,3.907792270E-2,-9.847671390E-1,6.181956083E-2
3.815811985E0,2.068913281E-1,-1.103781104E0,1.767145842E-1
3.835810422E0,2.745752037E-1,-9.729337692E-1,2.426007688E-1
3.855810422E0,1.082453206E-1,-6.683912873E-1,1.707106531E-1
3.875811985E0,1.315978263E-2,-7.150090337E-1,2.947861142E-2
3.895810422E0,-1.155757010E-1,-6.975033879E-1,-8.632398397E-2
3.915810422E0,-1.336747706E-1,-8.831540346E-1,-8.089601249E-2
3.935810422E0,-2.823244631E-1,-9.770876765E-1,-7.908086479E-2
3.955811985E0,-2.516764700E-1,-1.128617167E0,-1.780410409E-1
3.975810422E0,-2.351656556E-1,-9.394409060E-1,-2.937563658E-1
3.995808860E0,-2.639461458E-1,-8.718094230E-1,-4.475198686E-1
4.015811985E0,-2.918888628E-1,-1.017020822E0,-4.752531648E-1
4.035811985E0,-3.045425117E-1,-1.206790447E0,-3.395712674E-1
4.055810422E0,-3.266732693E-1,-1.374726057E0,-9.093165398E-2
4.075810422E0,-4.343251884E-1,-1.489062548E0,1.310742199E-1
4.095811985E0,-5.124810338E-1,-1.345299840E0,2.049540132E-1
4.115810422E0,-5.303706527E-1,-1.103676438E0,2.261074036E-1
4.135810422E0,-4.940677881E-1,-9.665982723E-1,1.160643920E-1
4.155810422E0,-5.231973529E-1,-9.495114684E-1,-1.479864717E-1
4.175811985E0,-5.819975138E-1,-9.708045125E-1,-3.852988780E-1
4.195810422E0,-6.377258301E-1,-1.134900331E0,-4.756545722E-1
4.215810422E0,-7.450985312E-1,-1.522328496E0,-4.624773562E-1
4.235811985E0,-9.203295708E-1,-1.942673683E0,-3.529579341E-1
4.255810422E0,-9.735795856E-1,-2.240950346E0,-1.474803239E-1
4.275810422E0,-8.940798044E-1,-2.240793228E0,4.016002640E-2
4.295810422E0,-7.896044254E-1,-1.908308148E0,1.208640486E-1
4.315811985E0,-6.128898263E-1,-1.337079287E0,9.250245243E-2
4.335810422E0,-4.376063943E-1,-7.799178362E-1,5.375613924E-3
4.355810422E0,-3.613529801E-1,-6.050533056E-1,-5.550146848E-2
4.375811985E0,-3.425557613E-1,-6.742556095E-1,2.300344035E-2
4.395810422E0,-3.891735077E-1,-6.954089999E-1,1.069886833E-1
4.415810422E0,-4.756196737E-1,-7.340156436E-1,1.094146892E-1
4.435810422E0,-5.351877809E-1,-9.373115897E-1,9.339256585E-2
4.455811985E0,-5.466371179E-1,-1.152510762E0,6.544984877E-2
4.475810422E0,-5.538802147E-1,-1.273549318E0,-2.474876866E-2
4.495808860E0,-5.176995397E-1,-1.292800307E0,-1.171290427E-1
4.515811985E0,-4.490208626E-1,-1.244419694E0,-3.855432197E-2
4.535819797E0,-3.558551669E-1,-1.017945886E0,2.282017916E-1
4.555810422E0,-2.409078032E-1,-5.188863873E-1,4.827406108E-1
4.575810422E0,-9.784315526E-2,9.456194192E-2,5.282413363E-1
4.595811985E0,-4.949753731E-2,3.389254808E-1,3.821572959E-1
4.615810422E0,-5.754350498E-2,1.831723005E-1,1.313709319E-1
4.635810422E0,-3.885103017E-2,1.511455141E-2,-2.201034725E-1
4.655810422E0,-6.606071442E-2,9.419541806E-2,-5.539674759E-1
4.675811985E0,-3.529055789E-2,-5.089380220E-2,-7.895869613E-1
4.695810422E0,6.106907129E-2,-3.024306595E-1,-9.799150825E-1
4.715810422E0,1.566083878E-1,-4.231899679E-1,-1.036481261E0
4.735811985E0,2.631607354E-1,-5.572836399E-1,-8.203396797E-1
4.755810422E0,1.776396036E-1,-6.648133397E-1,-2.869495749E-1
4.775810422E0,-2.302089334E-1,-6.914820075E-1,8.463101834E-2
4.795810422E0,-6.940476298E-1,-1.068350911E0,-1.051735431E-1
4.815811985E0,-8.161857724E-1,-1.208780169E0,-3.117856085E-1
4.835810422E0,-5.930803418E-1,-6.291038990E-1,-1.192932576E-1
4.855810422E0,-1.159596741E-1,-1.311440468E-1,1.218588874E-1
4.875811985E0,2.384817898E-1,-5.473352596E-2,1.573937982E-1
4.895810422E0,2.515543103E-1,4.693190381E-2,4.890412465E-2
4.915810422E0,1.556659192E-1,-1.661378890E-1,-8.377580345E-2
4.935810422E0,1.261873078E-2,-5.006127954E-1,-1.040739864E-1
4.955811985E0,-1.155931577E-1,-4.041833580E-1,4.099778458E-2
4.975810422E0,1.565560326E-2,-1.544790864E-1,2.253918201E-1
4.995808860E0,1.841322333E-1,-7.140141726E-2,3.159220517E-1
5.015811985E0,-3.857177682E-3,-9.756390937E-3,2.801253498E-1
5.035811985E0,-2.966535985E-1,-1.070934013E-1,1.162563786E-1
5.055810422E0,-2.206096202E-1,-8.765043318E-2,2.647664398E-2
5.075810422E0,-3.281218931E-3,1.546361744E-1,5.747369304E-2
5.095811985E0,1.283515096E-1,1.238834709E-1,7.724827528E-2
5.115810422E0,1.510233432E-1,-6.522295624E-2,7.204718888E-2
5.135810422E0,1.296256036E-1,-1.119454205E-1,1.904154196E-2
5.155810422E0,1.018748656E-1,-9.379399568E-2,-4.834562168E-2
5.175811985E0,5.440191180E-2,1.221730490E-3,-5.318018049E-2
5.195810422E0,5.785766616E-2,6.077236310E-2,-2.083923109E-2
5.215810422E0,7.215191424E-2,1.314232945E-1,5.759586580E-3
5.235811985E0,1.023810133E-1,1.654572189E-1,2.408554312E-3
5.255810422E0,1.279326379E-1,1.554390192E-1,-3.179989755E-2
5.275810422E0,1.267981678E-1,1.503601074E-1,-7.295475900E-2
5.295810422E0,1.435707808E-1,1.269377917E-1,-1.119454205E-1
5.315811985E0,1.488067657E-1,1.221904978E-1,-1.440071166E-1
5.335810422E0,1.297826767E-1,3.296926990E-2,-1.587551534E-1
5.355810422E0,7.745771110E-2,-6.138322875E-2,-1.389980167E-1
5.375811985E0,3.277728334E-2,-1.088212803E-1,-1.200437471E-1
5.395810422E0,9.512044489E-3,-7.087782025E-2,-1.019272283E-1
5.415810422E0,-6.178465672E-3,-5.096361507E-3,-7.916813344E-2
5.435810422E0,-3.146828711E-2,3.801327199E-2,-4.169591516E-2
5.455811985E0,-4.925319180E-2,1.965240762E-2,-1.047197497E-3
5.475810422E0,-5.277875811E-2,7.169812173E-2,3.040363453E-2
5.495808860E0,-4.139921069E-2,1.690176874E-1,3.874630854E-2
5.515811985E0,-2.792526782E-2,2.060884833E-1,4.763003439E-2
5.535811985E0,-2.225294709E-2,1.727352291E-1,7.316420227E-2
5.555810422E0,-2.637192421E-2,1.756673902E-1,9.374163300E-2
5.575810422E0,-2.752384171E-2,2.673320770E-1,8.587019891E-2
5.595811985E0,6.702064537E-3,2.466848344E-1,8.480554819E-2
5.615810422E0,5.091125518E-2,1.465029418E-1,9.070476145E-2
5.635810422E0,6.766641140E-2,8.906415105E-2,8.143706620E-2
5.655810422E0,2.330014482E-2,4.761258140E-2,4.303981736E-2
5.675811985E0,8.534659632E-3,2.164208330E-2,1.998401992E-2
5.695810422E0,1.122246683E-2,2.914699726E-3,6.981316954E-3
5.715810422E0,-4.642575979E-3,-2.359685116E-2,6.283185445E-3
5.735811985E0,-1.382300723E-2,-3.169517964E-2,2.007128671E-3
5.755810422E0,-2.399827726E-2,-8.529423922E-2,-6.195918657E-3
5.775810422E0,-2.539454028E-2,-1.133067757E-1,-2.153736353E-2
5.795810422E0,-4.904375412E-3,-4.921828583E-2,-6.551966071E-2
5.815811985E0,2.151990868E-2,-4.858996719E-2,-1.034456640E-1
5.835810422E0,2.949606394E-3,-4.365068302E-2,-1.181238815E-1
5.855810422E0,-4.633849114E-2,-9.852383286E-2,-1.169545129E-1
5.875811985E0,-6.174974889E-2,-1.944122314E-1,-1.015432552E-1
5.895810422E0,-4.495968297E-2,-1.400103122E-1,-9.526006877E-2
5.915810422E0,-3.321361542E-2,-5.605997518E-2,-8.234463632E-2
5.935810422E0,-2.464404888E-2,-2.347467840E-2,-6.853908300E-2
5.955811985E0,-1.809906401E-2,-3.141592816E-2,-6.267477572E-2
5.975810422E0,-3.761184588E-2,-4.555309191E-2,-6.873106211E-2
5.995808860E0,-4.454080388E-2,-5.970771238E-2,-6.942919642E-2
6.015811985E0,-3.944443911E-2,-6.597344577E-2,-6.791076064E-2
6.035811985E0,-4.773475602E-2,-4.862487316E-2,-7.012733072E-2
6.055810422E0,-5.314527452E-2,-1.160643995E-2,-9.382890165E-2
6.075810422E0,-5.967280641E-2,1.090830751E-2,-1.112298295E-1
6.095811985E0,-9.658651799E-2,-1.774999872E-2,-1.033583954E-1
6.115810422E0,-1.416160166E-1,-1.026602685E-1,-6.995279342E-2
6.135810422E0,-1.622632593E-1,-1.108458638E-1,-3.420845419E-2
6.155810422E0,-1.703615934E-1,-5.743878707E-2,5.969026126E-3
6.175811985E0,-2.003812492E-1,-4.457570985E-2,1.989675313E-2
6.195810422E0,-2.088984549E-1,-4.408701509E-2,5.201081280E-3
6.215810422E0,-1.979377866E-1,-5.482079089E-2,4.537856206E-3
6.235811985E0,-1.524545103E-1,-5.173156038E-2,1.199041214E-2
6.255810422E0,-1.176002845E-1,-7.236135006E-2,3.349286690E-2
6.275810422E0,-7.951720059E-2,-2.794272080E-2,4.485496134E-2
6.295810422E0,-8.239699155E-2,-5.235987715E-3,3.387684003E-2
6.315810422E0,-9.897761792E-2,-1.553343050E-2,2.120575123E-2
6.335810422E0,-1.044754088E-1,-4.813618213E-2,8.726646047E-5
6.355810422E0,-1.220683306E-1,-8.365362883E-2,-1.953023486E-2
6.375811985E0,-1.534842551E-1,-1.310916841E-1,-4.061381146E-2
6.395810422E0,-1.528559327E-1,-2.052856237E-1,-5.166174471E-2
6.415810422E0,-1.372352391E-1,-2.753431499E-1,-6.157521531E-2
6.435810422E0,-1.082802266E-1,-2.891486883E-1,-9.375908971E-2
6.455811985E0,-7.625343651E-2,-2.512052357E-1,-1.137780100E-1
6.475810422E0,-5.876523629E-2,-1.898045540E-1,-1.228362694E-1
6.495808860E0,-5.583308265E-2,-1.448972374E-1,-1.332558841E-1
6.515811985E0,-6.914994121E-2,-1.077915356E-1,-1.437278688E-1
6.535811985E0,-9.354964644E-2,-9.215338528E-2,-1.256811619E-1
6.555810422E0,-1.073377505E-1,-9.231046587E-2,-1.107585952E-1
6.575810422E0,-1.206197068E-1,-1.167799830E-1,-8.321730047E-2
6.595811985E0,-1.140398160E-1,-1.534668058E-1,-4.281292483E-2
6.615810422E0,-9.318313003E-2,-1.624377966E-1,-2.897246554E-2
6.635810422E0,-7.998844236E-2,-1.355073601E-1,-3.070034087E-2
6.655810422E0,-8.810421824E-2,-1.310916841E-1,-1.942551509E-2
6.675811985E0,-9.779080003E-2,-1.047721133E-1,-9.564404376E-3
6.695810422E0,-9.246754646E-2,-7.473500073E-2,-1.151917269E-3
6.715810422E0,-5.098106712E-2,-2.125811018E-2,-3.787364578E-3
6.735811985E0,-1.288053021E-2,4.717624933E-2,-1.445132587E-2
6.755810422E0,-2.190388180E-2,5.183627829E-2,-1.270599663E-2
6.775810422E0,-6.112143025E-2,-2.565634064E-2,1.483529806E-3
6.795810422E0,-7.599163800E-2,-8.180358261E-2,1.672025397E-2
6.815811985E0,-6.845181435E-2,-1.068141535E-1,2.019345947E-2
6.835810422E0,-6.557202339E-2,-1.068665087E-1,1.816887781E-2
6.855810422E0,-6.352998316E-2,-9.630727023E-2,1.045452245E-2
6.875811985E0,-6.276203692E-2,-8.609709144E-2,3.438298590E-3
6.895810422E0,-6.101670861E-2,-8.920377493E-2,-7.853981806E-4
6.915810422E0,-5.197590590E-2,-6.010913849E-2,-6.527531426E-3
6.935810422E0,-4.265584797E-2,-3.375466913E-2,-1.384046115E-2
6.955810422E0,-3.539527580E-2,-2.988003753E-2,-1.642354764E-2
6.975810422E0,-3.611086309E-2,-4.366813600E-2,-1.015781611E-2
6.995808860E0,-4.248131439E-2,-6.164502725E-2,-9.756390937E-3
7.015811985E0,-4.799655452E-2,-8.004079759E-2,-1.413716655E-2
7.035811985E0,-4.998622835E-2,-9.957103431E-2,-1.542871073E-2
7.055810422E0,-5.455899239E-2,-1.026951745E-1,-7.470009383E-3
7.075810422E0,-5.263913050E-2,-8.569566905E-2,-7.714355364E-3
7.095811985E0,-5.433209985E-2,-6.407103688E-2,-5.864306353E-3
7.115810422E0,-5.049237609E-2,-5.651376024E-2,6.283185445E-3
7.135810422E0,-4.389503226E-2,-6.291911751E-2,1.410226058E-2
7.155810422E0,-4.441862926E-2,-7.944738865E-2,9.197885171E-3
7.175810422E0,-4.953244328E-2,-8.594001085E-2,5.480333697E-3
7.195810422E0,-4.958480224E-2,-7.283259183E-2,6.841690745E-3
7.215810422E0,-4.469788074E-2,-6.625270098E-2,1.017526910E-2
7.235811985E0,-3.803072497E-2,-6.934192777E-2,9.337511845E-3
7.255810422E0,-3.567453101E-2,-7.419394702E-2,9.372417815E-3
7.275810422E0,-2.808234841E-2,-5.707226694E-2,7.941247895E-3
7.295810422E0,-1.563815027E-2,-3.598868847E-2,-1.064650831E-3
7.315810422E0,-3.351032268E-3,-1.481784508E-2,-4.729842301E-3
7.335810422E0,7.068583276E-3,-4.956734832E-3,-7.923794910E-3
7.355810422E0,1.101302728E-2,3.438298590E-3,-7.906341925E-3
7.375811985E0,1.497492474E-2,1.984439418E-2,-1.021017600E-2
7.395810422E0,1.890191622E-2,3.056071512E-2,-1.385791413E-2
7.415810422E0,1.705186628E-2,3.307398781E-2,-1.818633080E-2
7.435810422E0,1.968731359E-2,3.103195317E-2,-2.277654596E-2
7.455811985E0,1.839577034E-2,2.239257470E-2,-2.274163999E-2
7.475810422E0,1.708677411E-2,1.815142483E-2,-1.160643995E-2
7.495808860E0,2.197369561E-2,3.672172874E-2,-1.499237865E-2
7.515811985E0,2.581341937E-2,7.473500073E-2,-1.937315427E-2
7.535811985E0,1.010545623E-2,6.813765317E-2,-1.542871073E-2
7.555810422E0,1.487020496E-2,7.091272622E-2,1.500983140E-3
7.575810422E0,3.008947708E-2,5.876523629E-2,1.542871073E-2
7.595811985E0,3.590142354E-2,4.436627030E-2,1.576032303E-2
7.615810422E0,4.136430472E-2,6.618288159E-2,-1.453859266E-2
7.635810422E0,4.043927789E-2,8.660323918E-2,-2.830924094E-2
7.655810422E0,4.249876738E-2,7.625343651E-2,-2.495820820E-2
7.675810422E0,4.511675984E-2,6.206390634E-2,-1.398008689E-2
7.695810422E0,4.417428374E-2,5.934119597E-2,-5.759586580E-3
7.715810422E0,5.312782153E-2,8.864527196E-2,-3.246312495E-3
7.735811985E0,7.428121567E-2,1.150870100E-1,-1.192059834E-2
7.755810422E0,7.520623505E-2,1.291020066E-1,-2.076941729E-2
7.775810422E0,7.843509316E-2,1.488242298E-1,-2.155481651E-2
7.795810422E0,7.901105285E-2,1.472708881E-1,-1.881464943E-2
7.815811985E0,7.560766488E-2,1.320690662E-1,-4.677482415E-3
7.835810422E0,7.497934252E-2,7.363544405E-2,2.867575921E-2
7.855810422E0,8.244935423E-2,5.078908056E-3,4.881685972E-2
7.875811985E0,6.113888323E-2,2.031563222E-2,4.206243530E-2
7.895810422E0,4.813618213E-2,4.640830308E-2,7.853982039E-3
7.915810422E0,4.609414563E-2,4.309218004E-2,-1.443387289E-2
7.935810422E0,3.623303398E-2,2.464404888E-2,-1.684242673E-2
7.955811985E0,2.776818909E-2,-4.886921961E-3,-9.669124149E-3
7.975810422E0,2.965314314E-2,-5.934119225E-3,-5.026548170E-3
7.995808860E0,3.089232743E-2,8.464846760E-3,-2.548180753E-3
8.015811985E0,2.782054804E-2,2.961823717E-2,-8.290314116E-3
8.035811985E0,2.958333120E-2,3.281218931E-2,-6.754423957E-3
8.055810422E0,2.309070528E-2,3.354522958E-2,-9.250245057E-3
8.075810422E0,2.216568217E-2,3.431317210E-2,-1.857030392E-2
8.095811985E0,2.356194519E-2,4.604178667E-2,-1.647590846E-2
8.115810422E0,1.762782596E-2,5.492551252E-2,-4.153883550E-3
8.135810422E0,1.417207345E-2,4.750786349E-2,5.602506921E-3
8.155810422E0,1.724385284E-2,3.035127558E-2,1.813396998E-2
8.175811985E0,1.555088349E-2,2.174680308E-2,2.270673402E-2
8.195810422E0,9.808750823E-3,2.659881860E-2,1.511455141E-2
8.215810422E0,3.804817796E-3,2.796017379E-2,7.190756500E-3
8.235811985E0,7.487462368E-3,2.515019476E-2,1.605702913E-3
8.255810422E0,1.141445339E-2,2.504547499E-2,5.218534265E-3
8.275810422E0,8.918632753E-3,3.717551380E-2,1.446877979E-2
8.295810422E0,9.686577134E-3,3.544763848E-2,1.975712739E-2
8.315811985E0,1.007054932E-2,3.134611249E-2,1.589994878E-2
8.335810422E0,4.904375412E-3,2.429498360E-2,2.844886621E-3
8.355810422E0,6.632251316E-4,-3.490658419E-4,-6.614797749E-3
8.375811985E0,-1.413716702E-3,-1.249655709E-2,-7.068583276E-3
8.395810422E0,-3.874630900E-3,-2.049016580E-2,-3.595378250E-3
8.415810422E0,-3.769911127E-3,-1.539380383E-2,-1.902408898E-3
8.435810422E0,-9.424777818E-4,-2.338741207E-3,-3.543018363E-3
8.455810422E0,-1.710422686E-3,1.160643995E-2,-8.482299745E-3
8.475810422E0,-1.797689125E-3,5.567600485E-3,-1.305506285E-2
8.495808860E0,-4.293509759E-3,-8.796459064E-3,-1.185078546E-2
8.515811985E0,-7.138396613E-3,-2.185152285E-2,-1.240929123E-2
8.535810422E0,-5.270894151E-3,-2.326523885E-2,-1.375319436E-2
8.555810422E0,-5.026548170E-3,-1.912880875E-2,-8.604473434E-3
8.575810422E0,-4.694935866E-3,-1.986184716E-2,-8.499753661E-3
8.595811985E0,-6.771877408E-3,-2.291617356E-2,-7.627088577E-3
8.615810422E0,-8.203047328E-3,-2.026327327E-2,-1.167625282E-2
8.635810422E0,-3.281218931E-3,-1.200786512E-2,-1.640609466E-2
8.655810422E0,-2.408554312E-3,-1.384046115E-2,-1.668534800E-2
8.675810422E0,-1.054178830E-2,-1.635373570E-2,-1.513200440E-2
8.695810422E0,-1.239183731E-2,-1.270599663E-2,-1.556833647E-2
8.715810422E0,-9.302604944E-3,-1.150172018E-2,-8.307767101E-3
8.735811985E0,-7.976154797E-3,-2.532472648E-2,-2.024581889E-3
8.755810422E0,-8.709193207E-3,-2.975786291E-2,6.806784077E-4
8.775810422E0,-9.948376566E-3,-2.637192421E-2,-1.326450263E-3
8.795810422E0,-1.300270297E-2,-1.808161102E-2,-3.333578818E-3
8.815811985E0,-1.302015595E-2,-9.180432186E-3,-2.984513063E-3
8.835810422E0,-9.093165398E-3,2.042035107E-3,5.550147034E-3
8.855810422E0,-6.056292448E-3,7.400196046E-3,1.708677411E-2
8.875811985E0,-5.375613924E-3,1.652826741E-2,2.237512171E-2
8.895810422E0,-9.669124149E-3,9.145525284E-3,2.181661502E-2
8.915810422E0,-1.076868176E-2,-1.850049011E-3,2.141519077E-2
8.935810422E0,-1.174606569E-2,-1.500983140E-3,1.624901593E-2
8.955811985E0,-8.936085738E-3,-3.490658419E-4,6.998770405E-3
8.975810422E0,-5.899212789E-3,-9.599310579E-4,-1.623156248E-3
8.995808860E0,-3.822271014E-3,1.745329209E-4,-3.438298590E-3
9.015810422E0,-2.094395168E-4,6.841690745E-3,2.024581889E-3
9.035811985E0,-5.044001620E-3,5.829399452E-3,2.408554312E-3
9.055810422E0,-4.817108624E-3,8.482299745E-3,4.363323096E-3
9.075810422E0,-2.967059612E-3,3.141592722E-3,1.483529806E-3
9.095811985E0,-4.328416660E-3,-4.799655639E-3,5.235987919E-5
9.115810422E0,-8.115780540E-3,-1.879719645E-2,-2.164208330E-3
9.135810422E0,-1.024508290E-2,-2.757620253E-2,6.108652451E-4
9.155810422E0,-1.087340154E-2,-2.900737152E-2,1.762782573E-3
9.175810422E0,-1.384046115E-2,-1.736602560E-2,3.054326167E-3
9.195810422E0,-1.247910410E-2,-1.644100063E-2,-5.166174378E-3
9.215810422E0,-1.092576142E-2,-1.328195538E-2,-7.138396613E-3
9.235811985E0,-1.256637089E-2,-1.167625282E-2,-7.522369269E-3
9.255810422E0,-1.089085452E-2,-1.960004680E-2,-2.600540640E-3
9.275810422E0,-7.208209950E-3,-2.542944625E-2,-1.745329246E-5
9.295810422E0,-5.497787148E-3,-1.661553420E-2,-8.377580671E-4
9.315811985E0,-7.312929723E-3,-7.260569837E-3,-2.513274085E-3
9.335810422E0,-1.096066739E-2,-8.587019518E-3,-4.101523664E-3
9.355810422E0,-1.610938832E-2,-9.267698042E-3,-1.518436475E-3
9.375811985E0,-1.586504281E-2,-1.973967440E-2,-3.298672382E-3
9.395810422E0,-1.726130582E-2,-2.401573025E-2,-3.508111695E-3
9.415810422E0,-1.652826741E-2,-3.031636961E-2,-2.635447076E-3
9.435808860E0,-1.242674422E-2,-2.878047898E-2,-4.921828397E-3
9.455811985E0,-8.744099177E-3,-2.244493365E-2,-7.906341925E-3
9.475810422E0,-9.180432186E-3,-1.816887781E-2,-1.047197543E-2
9.495808860E0,-9.721484035E-3,-1.958259381E-2,-1.024508290E-2
9.515810422E0,-9.756390937E-3,-1.260127686E-2,-2.094395168E-4
9.535810422E0,-1.151917269E-3,0.000000000E0,5.672320258E-3
9.555810422E0,2.460914198E-3,8.429939859E-3,1.103048120E-2
9.575810422E0,7.155850180E-4,1.281071641E-2,9.128072299E-3
9.595811985E0,6.457717973E-4,2.052507177E-2,5.532693584E-3
9.615810422E0,5.619960371E-3,2.336995862E-2,4.363323096E-3
9.635810422E0,0.000000000E0,1.607448235E-2,-2.443460980E-4
9.655810422E0,5.672320258E-3,1.965240762E-2,4.904375412E-3
9.675811985E0,9.232792072E-3,3.464478627E-2,4.014257342E-3
9.695810422E0,1.232202444E-2,4.550073296E-2,4.084070213E-3
9.715810422E0,1.270599663E-2,5.656611919E-2,-7.330382941E-4
9.735811985E0,1.139700040E-2,5.232496932E-2,-4.188790335E-4
9.755810422E0,7.312929723E-3,3.817034885E-2,2.443460980E-4
9.775810422E0,1.099557383E-3,2.604031190E-2,6.754423957E-3
9.795810422E0,1.308996929E-3,1.146681327E-2,-1.274090377E-3
9.815811985E0,4.468042869E-3,1.394518092E-2,1.605702913E-3
9.835810422E0,2.897246508E-3,2.071705833E-2,-5.235987483E-4
9.855810422E0,1.082104165E-3,9.389871731E-3,-7.522369269E-3
9.875811985E0,-2.426007763E-3,3.822271014E-3,-6.248278543E-3
9.895811985E0,-2.338741207E-3,-5.637413356E-3,-9.075712413E-3
9.915810422E0,-1.605702913E-3,-9.407324716E-3,-6.824237294E-3
9.935810422E0,-3.298672382E-3,-7.906341925E-3,-3.316125600E-3
9.955811985E0,-1.186823938E-3,-8.255407214E-3,-1.989675453E-3
9.975810422E0,-3.961897455E-3,-8.726646192E-3,-2.949606394E-3
9.995808860E0,-7.417649496E-3,-1.624901593E-2,-2.251474652E-3
1.001581042E1,-1.237438433E-2,-2.289872058E-2,-2.617993858E-3
1.003581198E1,-9.983283468E-3,-3.064798191E-2,-2.164208330E-3
1.005581042E1,-6.544984877E-3,-2.151990868E-2,2.268928074E-4
1.007581042E1,-5.358160939E-3,-1.527163107E-2,3.996803891E-3
1.009581199E1,-2.967059845E-4,-1.270599663E-2,3.647738136E-3
1.011581042E1,5.235987919E-5,-9.808750823E-3,4.014257283E-4
1.013581042E1,1.047197497E-3,-1.211258490E-2,-2.443460980E-3
1.015580886E1,3.071779385E-3,-8.203047328E-3,-1.361356815E-3
1.017581042E1,6.283185445E-3,1.169370604E-3,-2.111848444E-3
1.019581042E1,7.225662936E-3,1.422443334E-2,-4.363323096E-4
1.021581042E1,9.634217247E-3,1.780235767E-2,-5.759586347E-4
1.023581198E1,8.936085738E-3,1.890191622E-2,2.705260413E-3
1.025581042E1,1.120501384E-2,1.874483563E-2,-1.117010717E-3
1.027581042E1,8.988445625E-3,9.040805511E-3,-6.841690745E-3
1.029581042E1,9.773843922E-4,-5.235987919E-5,-5.480333697E-3
1.031581198E1,4.136430100E-3,-1.480039209E-2,-1.274090377E-3
1.033581042E1,5.777040031E-3,-1.806415804E-2,-4.118977115E-3
1.035581042E1,1.745329238E-3,-1.584758982E-2,-6.754423957E-3
1.037581198E1,1.553343027E-3,-8.552113432E-4,-9.756390937E-3
1.039581198E1,2.146754880E-3,1.012290944E-3,-1.110029407E-2
1.041581042E1,3.700098023E-3,-7.243116386E-3,-7.173303049E-3
1.043581042E1,6.300638430E-3,-1.406735368E-2,-2.548180753E-3
1.045581042E1,5.393067375E-3,-5.358160939E-3,-5.235987919E-5
1.047581042E1,7.627088577E-3,1.137954649E-2,1.710422686E-3
1.049580886E1,1.277581044E-2,1.726130582E-2,1.204277156E-3
1.051581042E1,9.232792072E-3,1.480039209E-2,2.862340072E-3
1.053581198E1,1.038470864E-2,1.895427518E-2,6.492624991E-3
1.055581042E1,9.930923581E-3,2.343977243E-2,8.168140426E-3
1.057581042E1,1.033234876E-2,2.734931000E-2,8.290314116E-3
1.059581199E1,8.080874570E-3,2.321287990E-2,8.360126987E-3
1.061581042E1,2.495820867E-3,2.665117756E-2,6.859143730E-3
1.063581042E1,6.632251316E-4,2.574360557E-2,8.813912980E-3
1.065581042E1,-5.235987919E-5,2.792526782E-2,8.412486874E-3
1.067581199E1,1.745329246E-5,2.460914291E-2,7.330382708E-3
1.069581042E1,8.028514567E-4,1.277581044E-2,6.073745899E-3
1.071581042E1,7.155850180E-4,2.635447076E-3,4.555309191E-3
1.073581199E1,-3.490658492E-5,3.979350906E-3,-7.853981806E-4
1.075581042E1,3.089232836E-3,1.150172018E-2,-2.932153177E-3
1.077581042E1,2.967059845E-4,1.328195538E-2,-4.310963210E-3
1.079581042E1,2.792526793E-4,4.014257342E-3,-1.064650831E-3
1.081581198E1,6.457717973E-4,-5.061454722E-4,-8.377580671E-4
1.083581042E1,3.316125658E-4,-2.495820867E-3,-1.954768784E-3
1.085581042E1,-8.552113432E-4,-4.363323096E-3,-6.876597181E-3
1.087581198E1,-1.937315450E-3,-1.069886796E-2,-6.597344764E-3
1.089581198E1,-2.286381321E-3,-1.555088349E-2,-4.293509759E-3
1.091581042E1,-1.204277156E-3,-9.896016680E-3,-7.853981806E-4
1.093581042E1,-3.176499158E-3,-1.221730490E-3,2.635447076E-3
1.095581198E1,-5.323254038E-3,-3.071779385E-3,1.413716702E-3
1.097581042E1,-9.145525284E-3,-1.169370604E-3,-1.518436475E-3
1.099580886E1,-8.901178837E-3,-8.098327555E-3,-7.138396613E-3
1.101581042E1,-1.111774705E-2,-2.330014482E-2,-7.051130291E-3
1.103581042E1,-6.998770405E-3,-2.897246554E-2,-5.270894151E-3
1.105581042E1,-5.881759338E-3,-2.382374369E-2,-2.303834539E-3
1.107581042E1,-5.777040031E-3,-1.858775690E-2,5.235987483E-4
1.109581199E1,-1.867502346E-3,-1.502728462E-2,3.543018363E-3
1.111581042E1,-5.358160939E-3,-1.047197543E-2,2.495820867E-3
1.113581042E1,-5.096361507E-3,-4.642575979E-3,-5.986479111E-3
1.115580886E1,-5.707226694E-3,-1.467821933E-2,5.602506921E-3
1.117581042E1,-2.391101094E-3,-1.541125681E-2,3.228859045E-3
1.119581042E1,9.599310579E-4,-2.862340072E-3,-1.396263397E-4
1.121581042E1,9.773843922E-4,1.167625282E-2,3.490658477E-3
1.123581199E1,1.919862116E-3,9.494591504E-3,5.410520826E-4
1.125581042E1,2.303834539E-3,-4.363323096E-4,2.094394993E-3
1.127581042E1,3.839724232E-4,-4.468042869E-3,4.363323096E-3
1.129581042E1,3.665191471E-4,2.373647876E-3,3.735004691E-3
1.131581198E1,1.745329238E-3,8.901178837E-3,2.914699726E-3
1.133581042E1,3.246312495E-3,7.853982039E-3,-8.552113432E-4
1.135581042E1,-9.075712296E-4,7.853981806E-4,2.775073517E-3
1.137581198E1,-3.246312495E-3,-1.274090377E-3,-6.457717973E-4
1.139581198E1,1.745329209E-4,-2.844886621E-3,0.000000000E0
1.141581042E1,-2.565633971E-3,-5.672320258E-3,4.712388851E-3
1.143581042E1,-5.846852902E-3,-4.084070213E-3,5.166174378E-3
1.145581042E1,-4.886921961E-3,-4.171337001E-3,2.565633971E-3
1.147581042E1,-6.387905218E-3,-1.361356815E-3,1.675516134E-3
1.149581042E1,-6.702064537E-3,-2.478367416E-3,3.071779385E-3
1.151580886E1,-6.789330859E-3,-8.377579972E-3,4.415682983E-3
1.153581511E1,-8.604473434E-3,-1.448623277E-2,4.974188283E-3
1.155581042E1,-6.963863503E-3,-1.452113967E-2,1.117010717E-3
1.157581042E1,-3.717551241E-3,-1.410226058E-2,-4.171337001E-3
1.159581199E1,-2.146754880E-3,-1.021017600E-2,1.745329209E-4
1.161581042E1,6.457717973E-4,-7.330382941E-4,-6.073745899E-3
1.163581042E1,-2.268928074E-4,-5.585053586E-4,-2.181661548E-3
1.165580886E1,-1.919862116E-3,3.385938704E-3,-3.944444004E-3
1.167581199E1,2.967059845E-4,-1.396263367E-3,-3.525565146E-3
1.169581042E1,-6.806784077E-4,-4.852015525E-3,-1.902408898E-3
1.171581042E1,-4.712388909E-4,-3.961897455E-3,-3.490658492E-5
1.173581199E1,1.151917269E-3,-2.967059845E-4,1.797689125E-3
1.175581042E1,-9.424777818E-4,-2.268928074E-4,4.991641734E-3
1.177581042E1,-2.234021435E-3,9.773843922E-4,-3.141592606E-4
1.179581042E1,-1.500983140E-3,7.504915819E-3,-3.909537569E-3
1.181581198E1,-2.076941775E-3,-1.535889693E-3,-7.452555932E-3
1.183581042E1,-1.832595677E-3,-1.350884791E-2,-8.080874570E-3
1.185581042E1,2.792526793E-4,-9.704031050E-3,-5.724680144E-3
1.187581198E1,5.044001620E-3,4.031710327E-3,-6.492624991E-3
1.189581198E1,1.110029407E-2,1.307251584E-2,-5.480333697E-3
1.191581042E1,7.853981806E-4,3.490658492E-5,2.443460980E-4
1.193581042E1,-3.316125658E-4,-2.426007763E-3,6.632251316E-4
1.195581198E1,-3.124139272E-3,-3.595378250E-3,8.726646047E-5
1.197581042E1,-2.373647876E-3,-1.745329238E-3,1.012290944E-3
1.199580886E1,-1.727875904E-3,3.769911127E-3,1.466076588E-3
1.201580886E1,5.410520826E-4,1.263618376E-2,2.984513063E-3
1.203581198E1,3.054326167E-3,1.481784508E-2,3.525565146E-3
1.205581042E1,5.986479111E-3,7.417649496E-3,5.061454605E-3
1.207580886E1,3.804817796E-3,4.607669078E-3,-1.012290944E-3
1.209581199E1,1.448623254E-3,5.846852902E-3,-3.996803891E-3
1.211581042E1,8.848818950E-3,1.764527895E-2,-4.101523664E-3
1.213581042E1,8.203047328E-4,3.228859045E-3,-5.026548170E-3
1.215581042E1,3.490658419E-4,-3.438298590E-3,-9.424777818E-4
1.217581199E1,-8.028514567E-4,-6.038838997E-3,-1.221730490E-4
1.219581042E1,-4.241149873E-3,-4.380776547E-3,2.722713631E-3
1.221581042E1,-7.208209950E-3,-1.417207345E-2,-3.490658477E-3
1.223581199E1,-5.707226694E-3,-1.830850355E-2,3.316125658E-4
1.225581042E1,-5.445427261E-3,-1.445132587E-2,5.235987483E-4
1.227581042E1,-5.061454605E-3,-1.008800324E-2,-2.914699726E-3
1.229581042E1,-2.617993858E-3,-8.028514567E-4,-1.204277156E-3
1.231581199E1,-2.565633971E-3,1.343903481E-3,-2.967059612E-3
1.233581042E1,-2.303834539E-3,-1.937315450E-3,8.552113432E-4
1.235581042E1,-1.553343027E-3,-5.986479111E-3,7.504915702E-4
1.237581198E1,-1.134464052E-3,-5.026548170E-3,1.588249579E-3
1.239581042E1,8.726646192E-4,3.926991019E-3,3.001966281E-3
1.241581042E1,3.316125658E-4,8.011061698E-3,-1.047197497E-3
1.243581042E1,2.495820867E-3,7.435102481E-3,2.967059845E-4
1.245581198E1,1.762782573E-3,3.700098023E-3,3.368485486E-3
1.247581042E1,4.869468510E-3,-3.141592606E-4,4.921828397E-3
1.249580886E1,3.909537569E-3,-2.391101094E-3,4.031710327E-3
1.251581042E1,4.223696887E-3,1.256637042E-3,3.647738136E-3
1.253581198E1,3.804817796E-3,4.276056774E-3,-1.570796303E-4
1.255581042E1,2.705260413E-3,2.984513063E-3,4.363323096E-4
1.257581042E1,2.373647876E-3,-1.274090377E-3,-9.424777818E-4
1.259581199E1,4.712388909E-4,4.380776547E-3,-2.408554312E-3
1.261581042E1,1.064650831E-3,4.991641734E-3,-3.333578818E-3
1.263581042E1,-7.504915702E-4,-6.038838997E-3,-8.342674002E-3
1.265581042E1,-2.844886621E-3,-6.387905218E-3,-9.948377265E-4
1.267581042E1,-1.012290944E-3,-3.106686054E-3,-1.658062800E-3
1.269581042E1,-9.250245057E-4,-2.042035107E-3,-4.537856148E-4
1.271581042E1,-1.291543595E-3,-6.108652451E-4,2.967059845E-4
1.273581199E1,-4.677482415E-3,-2.373647876E-3,-4.363323096E-4
1.275581042E1,-4.049163777E-3,-1.089085452E-2,0.000000000E0
1.277581042E1,-5.585053470E-3,-1.527163107E-2,-4.537856148E-4
1.279581042E1,-5.637413356E-3,-1.043706853E-2,-1.780235791E-3
1.281581199E1,-4.852015525E-3,-1.000073645E-2,-2.129301662E-3
1.283581042E1,-7.155850064E-3,-1.073377486E-2,6.806784077E-4
1.285581042E1,-3.926991019E-3,-1.219985168E-2,4.886921961E-3
1.287581198E1,-1.658062800E-3,-1.165879890E-2,-3.316125658E-4
1.289581198E1,-2.984513063E-3,-9.320057929E-3,-3.647738136E-3
1.291581042E1,-3.246312495E-3,-8.779006079E-3,-7.644542027E-3
1.293581042E1,-2.792526735E-3,-1.413716702E-3,-1.466076588E-3
1.295581198E1,-1.535889693E-3,1.745329246E-5,-1.518436475E-3
1.297581042E1,1.047197497E-3,4.974188283E-3,-4.886921961E-4
1.299580886E1,-2.268928074E-4,1.038470864E-2,-8.377580671E-4
1.301580886E1,-1.692969352E-3,8.429939859E-3,-6.981316954E-3
1.303581198E1,-8.726646192E-4,8.552113432E-4,-1.500983140E-3
1.305581042E1,-8.726646192E-4,-4.764748737E-3,-2.460914198E-3
1.307581042E1,-1.780235791E-3,-5.218534265E-3,-1.954768784E-3
1.309585417E1,-6.632251316E-4,2.495820867E-3,-2.897246508E-3
1.311581042E1,-2.391101094E-3,1.308996929E-3,-6.771877408E-3
1.313581042E1,4.188790335E-4,-8.377580671E-4,-1.291543595E-3
1.315581042E1,5.235987919E-5,-7.452555932E-3,-5.550147034E-3
1.317581199E1,-6.981316983E-5,-1.120501384E-2,-4.450589418E-3
1.319581042E1,1.919862116E-4,-1.015781611E-2,-3.298672382E-3
1.321581042E1,1.431170036E-3,-4.171337001E-3,-9.512044489E-3
1.323581199E1,1.797689125E-3,1.274090377E-3,-8.726646192E-4
1.325581042E1,1.221730490E-3,3.316125658E-4,-3.054326167E-3
1.327581042E1,2.670353744E-3,-5.619960371E-3,1.692969352E-3
1.329581042E1,1.151917269E-3,-7.679448463E-4,8.028514567E-4
1.331581199E1,3.455751808E-3,8.063420653E-3,5.986479111E-3
1.333581042E1,3.682644805E-3,1.677261479E-2,3.420845373E-3
1.335581042E1,2.635447076E-3,1.788962446E-2,1.413716702E-3
1.337581198E1,7.330382941E-4,1.867502369E-2,1.919862116E-3
1.339581199E1,1.605702913E-3,1.816887781E-2,-5.393067375E-3
1.341581042E1,7.155850180E-4,9.651671164E-3,-1.937315450E-3
1.343581042E1,-4.886921961E-4,6.335545331E-3,-3.019419499E-3
1.345581198E1,8.901178953E-4,4.328416660E-3,-2.879793290E-3
1.347581042E1,3.490658492E-5,1.588249579E-3,-6.178465672E-3
1.349580886E1,-1.500983140E-3,6.876597181E-3,-6.073745899E-3
1.351581042E1,-5.113814492E-3,3.525565146E-3,-3.281218931E-3
1.353581198E1,-8.080874570E-3,1.099557383E-3,-8.552113432E-4
1.355581042E1,-9.494591504E-3,-9.756390937E-3,4.974188283E-3
1.357581042E1,-1.096066739E-2,-7.923794910E-3,4.572762642E-3
1.359581199E1,-1.211258490E-2,-3.228859045E-3,2.705260413E-3
1.361581042E1,-1.392772701E-2,-5.096361507E-3,2.984513063E-3
1.363581042E1,-1.446877979E-2,-5.619960371E-3,5.794493016E-3
1.365581042E1,-1.305506285E-2,-3.368485486E-3,4.433136433E-3
1.367581199E1,-1.434660610E-2,-5.742133129E-3,2.914699726E-3
1.369581198E1,-1.354375482E-2,-6.806784077E-4,-2.827433404E-3
1.371581042E1,-1.815142483E-2,3.490658492E-5,-2.565633971E-3
1.373581199E1,-2.179916203E-2,-1.148426626E-2,-1.012290944E-3
1.375581042E1,-2.254965343E-2,-9.948376566E-3,1.553343027E-3
1.377581042E1,-2.520255372E-2,-8.360126987E-3,1.553343027E-3
1.379581042E1,-2.762856148E-2,-9.302604944E-3,2.757620299E-3
1.381581199E1,-3.090978041E-2,-1.150172018E-2,0.000000000E0
1.383581042E1,-3.754203022E-2,-2.850122750E-2,-1.047197497E-3
1.385581042E1,-4.139921069E-2,-3.876376152E-2,3.839724232E-4
1.387581198E1,-4.377285764E-2,-3.661700711E-2,6.736970972E-3
1.389581199E1,-4.495968297E-2,-4.197516665E-2,6.108652335E-3
1.391581042E1,-4.663519561E-2,-5.387831479E-2,4.380776547E-3
1.393581042E1,-5.291838199E-2,-6.656685472E-2,5.707226694E-3
1.395581198E1,-5.220279843E-2,-6.977826357E-2,1.113520097E-2
1.397581042E1,-5.307546258E-2,-6.461209059E-2,1.401499379E-2
1.399580886E1,-5.708971992E-2,-6.583382189E-2,1.031489577E-2
1.401581042E1,-6.628760695E-2,-7.065092772E-2,1.000073645E-2
1.403581198E1,-7.476990670E-2,-7.892379165E-2,1.099557430E-2
1.405581042E1,-7.070329040E-2,-8.925613761E-2,1.054178830E-2
1.407581042E1,-6.506587565E-2,-9.344492853E-2,7.661995478E-3
1.409581199E1,-6.199409440E-2,-9.553932399E-2,4.066617228E-3
1.411581042E1,-5.998696759E-2,-9.843657166E-2,-5.340707488E-3
1.413581042E1,-6.051056460E-2,-1.048070192E-1,-6.998770405E-3
1.415581042E1,-5.825908855E-2,-1.172337681E-1,-1.640609466E-3
1.417581199E1,-5.141739920E-2,-1.068665087E-1,-3.159045940E-3
1.419581042E1,-5.188863724E-2,-8.754571527E-2,-3.630284918E-3
1.421581042E1,-5.483824387E-2,-6.431538612E-2,-6.684611086E-3
1.423581199E1,-5.775294453E-2,-4.913101718E-2,-1.525417715E-2
1.425581042E1,-6.145304441E-2,-6.206390634E-2,-2.837905288E-2
1.427581042E1,-6.628760695E-2,-9.335765988E-2,-2.480112948E-2
1.429581042E1,-6.623524427E-2,-9.370672703E-2,-2.481858246E-2
1.431581199E1,-5.850343779E-2,-9.044296294E-2,-2.801253460E-2
1.433581042E1,-5.173156038E-2,-9.211847931E-2,-2.897246554E-2
1.435581042E1,-5.562364310E-2,-9.491100162E-2,-2.036799304E-2
1.437581198E1,-5.787511915E-2,-1.046150327E-1,-9.721484035E-3
1.439581199E1,-5.700245500E-2,-1.073202938E-1,-8.098327555E-3
1.441581042E1,-5.902703479E-2,-1.019097716E-1,-1.113520097E-2
1.443581042E1,-5.663593486E-2,-8.456119895E-2,-1.239183731E-2
1.445581198E1,-5.258677155E-2,-6.565928459E-2,-1.350884791E-2
1.447581042E1,-4.996877536E-2,-5.834635720E-2,-9.267698042E-3
1.449580886E1,-4.419173673E-2,-4.956734926E-2,-7.522369269E-3
1.451581042E1,-3.625048697E-2,-4.649557173E-2,-5.934119225E-3
1.453581198E1,-3.101450019E-2,-4.413937777E-2,-3.490658419E-4
1.455581042E1,-2.850122750E-2,-2.960078418E-2,4.590216093E-3
1.457581042E1,-3.258529678E-2,-2.815216035E-2,7.609635592E-3
1.459581199E1,-3.436553106E-2,-3.471459821E-2,1.513200440E-2
1.461581042E1,-3.460988030E-2,-4.063126445E-2,1.602212340E-2
1.463581042E1,-3.317870945E-2,-4.914847016E-2,1.303760987E-2
1.465581042E1,-3.015928902E-2,-5.951572582E-2,8.656833321E-3
1.467581199E1,-3.033382259E-2,-5.651376024E-2,8.342674002E-3
1.469581042E1,-3.235840425E-2,-4.968952388E-2,6.230825558E-3
1.471581042E1,-3.312635049E-2,-5.464625731E-2,-2.391101094E-3
1.473581199E1,-3.275983036E-2,-5.672319978E-2,-4.398229532E-3
1.475581042E1,-3.115412779E-2,-5.454153940E-2,-3.054326167E-3
1.477581042E1,-2.705260366E-2,-4.817108810E-2,-4.537856148E-4
1.479581042E1,-2.829178795E-2,-4.637339711E-2,7.330382941E-4
1.481581199E1,-3.253293782E-2,-5.035274848E-2,2.391101094E-3
1.483581042E1,-3.155555204E-2,-5.567600206E-2,5.864306353E-3
1.485581042E1,-2.644173801E-2,-5.422737822E-2,5.323254038E-3
1.487581042E1,-2.490584925E-2,-4.855506122E-2,9.250245057E-4
1.489581199E1,-2.350958437E-2,-4.796164855E-2,-2.408554312E-3
1.491581042E1,-2.148500271E-2,-4.684463516E-2,-8.918632753E-3
1.493581042E1,-2.151990868E-2,-4.647811875E-2,-1.144936029E-2
1.495581198E1,-1.897172816E-2,-4.577998444E-2,-3.473205259E-3
1.497581042E1,-1.019272301E-2,-4.595451802E-2,-3.769911127E-3
1.499580886E1,-7.976154797E-3,-4.574507847E-2,-9.546951391E-3
1.501580886E1,-1.293289009E-2,-4.797910154E-2,-1.347394194E-2
1.503581355E1,-9.948376566E-3,-3.263765574E-2,-1.048942842E-2
1.505581042E1,-6.003932562E-3,-2.328269184E-2,-1.761037298E-2
1.507581042E1,-7.068583276E-3,-3.612831607E-2,-1.213003788E-2
1.509581199E1,-7.138396613E-3,-3.071779385E-2,-7.400196046E-3
1.511581042E1,2.268928074E-4,-1.160643995E-2,3.665191471E-4
1.513581042E1,1.130973361E-2,-3.316125600E-3,9.756390937E-3
1.515581042E1,8.499753661E-3,3.804817796E-3,1.061160211E-2
1.517581199E1,3.263765713E-3,1.656317525E-2,6.161012221E-3
1.519581042E1,4.904375412E-3,2.275909297E-2,3.403391922E-3
1.521581042E1,1.206022501E-2,2.457423508E-2,1.466076588E-3
1.523581199E1,9.407324716E-3,2.975786291E-2,-2.268928074E-4
1.525581042E1,8.970992640E-3,2.551671304E-2,5.410520826E-3
1.527581042E1,1.403244678E-2,2.747148275E-2,3.176499158E-3
1.529581042E1,1.441641990E-2,3.677408770E-2,6.963863503E-3
1.531581199E1,8.988445625E-3,2.820452116E-2,1.047197497E-3
1.533581042E1,9.512044489E-3,1.712168008E-2,-3.857177682E-3
1.535581042E1,1.174606569E-2,2.443460980E-3,-2.373647876E-3
1.537581042E1,9.581857361E-3,1.605702913E-3,-4.537856206E-3
1.539581199E1,7.382742595E-3,9.721484035E-3,-1.762782573E-3
1.541581042E1,1.108284108E-2,1.314232964E-2,-5.026548170E-3
1.543581042E1,1.567305624E-2,1.935570128E-2,-5.462880712E-3
1.545581198E1,1.841322333E-2,2.797762863E-2,-6.230825558E-3
1.547581042E1,1.734857261E-2,2.419026382E-2,-7.365289610E-3
1.549580886E1,1.214749180E-2,2.066469751E-2,-4.694935866E-3
1.551581042E1,1.029744279E-2,2.419026382E-2,-5.846852902E-3
1.553581198E1,1.336922217E-2,2.092649788E-2,-3.281218931E-3
1.555581042E1,1.469567232E-2,2.593559213E-2,-2.391101094E-3
1.557581042E1,1.652826741E-2,3.298672289E-2,-5.881759338E-3
1.559581199E1,1.848303713E-2,3.672172874E-2,-4.031710327E-3
1.561581042E1,1.499237865E-2,3.792600334E-2,-5.899212789E-3
1.563581042E1,1.338667516E-2,3.724532574E-2,-2.146754880E-3
1.565581042E1,1.279326342E-2,3.490658477E-2,-6.457717973E-4
1.567581199E1,9.983283468E-3,3.214896470E-2,-4.537856148E-4
1.569581042E1,9.738937020E-3,2.694788389E-2,-1.745329246E-5
1.571581042E1,1.073377486E-2,2.111848444E-2,-4.014257283E-4
1.573581199E1,9.529497474E-3,1.977458037E-2,-1.815142459E-3
1.575581199E1,8.080874570E-3,1.029744279E-2,8.377580671E-4
1.577581042E1,6.248278543E-3,7.888888009E-3,3.490658492E-5
1.579581042E1,5.445427261E-3,1.584758982E-2,-1.989675453E-3
1.581581199E1,4.852015525E-3,1.954768784E-2,-4.991641734E-3
1.583581042E1,6.265731994E-3,9.738937020E-3,-7.400196046E-3
1.585581042E1,8.377579972E-3,6.126105785E-3,-7.731808349E-3
1.587581042E1,5.323254038E-3,1.300270297E-2,-2.303834539E-3
1.589581199E1,8.011061698E-3,1.216494478E-2,2.286381321E-3
1.591581042E1,7.330382708E-3,7.714355364E-3,4.660028964E-3
1.593581042E1,6.370451767E-3,1.603957638E-2,-4.188790335E-4
1.595581198E1,6.248278543E-3,2.694788389E-2,2.111848444E-3
1.597581042E1,4.921828397E-3,2.396337129E-2,2.408554312E-3
1.599580886E1,3.001966281E-3,3.612831468E-3,5.829399452E-3
1.601581042E1,1.658062800E-3,-7.609635592E-3,7.819075137E-3
1.603581199E1,3.490658419E-4,1.500983140E-3,1.089085452E-2
1.605581042E1,-8.901178953E-4,1.640609466E-2,1.677261479E-2
1.607581042E1,-3.124139272E-3,1.668534800E-2,1.555088349E-2
1.609581198E1,-2.094395168E-4,7.068583276E-3,1.638864167E-2
1.611581042E1,-3.228859045E-3,-4.188790335E-4,1.867502369E-2
1.613581042E1,-9.651671164E-3,-3.316125600E-3,1.834340952E-2
1.615581042E1,-7.906341925E-3,-7.766715251E-3,2.146754973E-2
1.617581198E1,-6.108652451E-4,-4.956734832E-3,1.679006778E-2
1.619581042E1,6.457717973E-4,9.354964830E-3,1.213003788E-2
1.621581042E1,1.151917269E-3,4.625122529E-3,6.440265104E-3
1.623581198E1,-2.321287990E-3,-1.207767799E-2,2.234021435E-3
1.625581198E1,-1.396263397E-4,-2.796017379E-2,-4.206243437E-3
1.627581042E1,1.221730490E-4,-2.967059799E-2,-9.581857361E-3
1.629581042E1,3.490658492E-5,-2.356194519E-2,-7.225662936E-3
1.631581198E1,1.745329209E-4,3.490658492E-5,-3.595378250E-3
1.633581042E1,-1.221730490E-3,1.583013684E-2,-1.640609466E-3
1.635581042E1,-6.073745899E-3,9.407324716E-3,4.276056774E-3
1.637581042E1,-1.350884791E-2,-6.789330859E-3,1.190314535E-2
1.639581198E1,-1.713913307E-2,-1.656317525E-2,1.675515994E-2
1.641581042E1,-1.352630183E-2,-1.296779606E-2,1.380555425E-2
1.643581042E1,-1.155408006E-2,-2.984513063E-3,1.307251584E-2
1.645581198E1,-1.120501384E-2,-1.466076588E-3,1.176351868E-2
1.647581042E1,-1.099557430E-2,-5.166174378E-3,1.185078546E-2
1.649580886E1,-1.303760987E-2,-1.572541706E-2,1.206022501E-2
1.651581042E1,-1.385791413E-2,-2.513274178E-2,5.550147034E-3
1.653581199E1,-1.333431527E-2,-2.497566119E-2,5.113814492E-3
1.655581042E1,-1.321214251E-2,-1.626646891E-2,7.208209950E-3
1.657581042E1,-9.930923581E-3,-2.024581889E-3,1.570796303E-4
1.659581198E1,-7.609635592E-3,2.827433404E-3,-3.490658492E-5
1.661581042E1,-8.953538723E-3,-1.752310619E-2,3.752457909E-3
1.663581042E1,-1.820378378E-2,-3.951425478E-2,-4.188790335E-4
1.665581042E1,-1.525417715E-2,-2.890265174E-2,1.797689125E-3
1.667581198E1,-9.145525284E-3,-1.834340952E-2,1.972222002E-3
1.669581042E1,-4.380776547E-3,-7.522369269E-3,4.904375412E-3
1.671581199E1,-7.155850064E-3,-5.340707488E-3,5.427973811E-3
1.673581198E1,-8.133234456E-3,-6.771877408E-3,8.587019518E-3
1.675581042E1,-5.515240598E-3,-5.829399452E-3,1.103048120E-2
1.677581042E1,-8.866272867E-3,-7.696901914E-3,4.171337001E-3
1.679581042E1,-1.274090353E-2,-1.045452245E-2,2.897246508E-3
1.681581198E1,-8.325220086E-3,-1.350884791E-2,4.677482415E-3
1.683581042E1,-3.106686054E-3,-2.146754880E-3,7.592182141E-3
1.685581042E1,8.552113432E-4,6.928957067E-3,5.619960371E-3
1.687581042E1,-2.426007763E-3,-1.012290944E-3,-8.203047328E-4
1.689581198E1,-6.387905218E-3,-1.647590846E-2,-1.745329238E-3
1.691581042E1,-9.704031050E-3,-1.949532703E-2,-4.660028964E-3
1.693581042E1,-4.049163777E-3,-9.861109778E-3,-1.466076588E-3
1.695581198E1,-2.111848444E-3,5.323254038E-3,-9.424777818E-4
1.697581042E1,1.850049011E-3,1.014036313E-2,-7.679448463E-4
1.699580886E1,-1.239183708E-3,4.520402756E-3,-1.012290944E-3
1.701581042E1,-5.044001620E-3,-4.642575979E-3,-5.934119690E-4
1.703581199E1,-4.660028964E-3,-1.111774705E-2,-2.164208330E-3
1.705581042E1,-7.592182141E-3,-1.441641990E-2,-1.605702913E-3
1.707581042E1,-6.771877408E-3,-1.422443334E-2,4.886921961E-4
1.709581198E1,-2.862340072E-3,-6.248278543E-3,2.268928103E-3
1.711581042E1,-9.424777818E-4,8.028514567E-4,-1.710422686E-3
1.713581042E1,-2.076941775E-3,6.981316983E-5,-5.201081280E-3
1.715581042E1,-4.886921961E-3,-6.248278543E-3,-2.652900526E-3
1.717581199E1,-4.642575979E-3,-8.395033889E-3,-2.007128671E-3
1.719581042E1,-1.396263367E-3,-1.640609466E-3,-2.443460980E-3
1.721581042E1,1.361356815E-3,4.834562074E-3,-6.457718089E-3
1.723581198E1,-1.134464052E-3,6.789330859E-3,-5.427973811E-3
1.725581198E1,-1.937315450E-3,-1.221730490E-4,-1.623156248E-3
1.727581042E1,-5.061454722E-4,-1.623156248E-3,-1.396263397E-4
1.729581042E1,-1.047197584E-4,-5.759586347E-4,2.530727303E-3
1.731581198E1,2.234021435E-3,5.759586580E-3,2.216568217E-3
1.733581042E1,1.884955564E-3,5.846852902E-3,1.553343027E-3
1.735581042E1,4.276056774E-3,3.263765713E-3,4.537856148E-4
1.737581042E1,8.587019518E-3,1.696459949E-2,1.919862116E-4
1.739581198E1,1.275835652E-2,1.987930015E-2,-3.508111695E-3
1.741581042E1,3.228859045E-3,-1.221730490E-4,-6.667157635E-3
1.743581042E1,-1.483529806E-3,-1.211258490E-2,-6.352998316E-3
1.745581198E1,6.108652451E-4,-3.368485486E-3,-5.619960371E-3
1.747581042E1,6.841690745E-3,5.899212789E-3,-3.996803891E-3
1.749580886E1,4.433136433E-3,1.167625282E-2,-5.218534265E-3
1.751581042E1,-5.235987483E-4,9.791296907E-3,-4.904375412E-3
1.753581199E1,-4.886921961E-4,-4.084070213E-3,-2.251474652E-3
1.755581042E1,6.108652451E-4,-5.323254038E-3,2.740166849E-3
1.757581042E1,1.954768784E-3,-4.014257283E-4,-1.815142459E-3
1.759581198E1,3.228859045E-3,6.091198884E-3,2.443460980E-4
1.761581042E1,4.799655639E-3,1.134464052E-2,1.396263397E-4
1.763581042E1,7.696901914E-3,2.153736353E-2,4.328416660E-3
1.765581042E1,9.389871731E-3,1.692969352E-2,-3.490658419E-4
1.767581199E1,7.696901914E-3,1.560324337E-2,-1.256637042E-3
1.769581042E1,5.654866807E-3,7.086036727E-3,-1.832595677E-3
1.771581042E1,9.424777818E-4,3.857177682E-3,-1.937315450E-3
1.773581198E1,1.099557383E-3,1.036725566E-2,-3.682644805E-3
1.775581198E1,8.028514567E-4,1.844812930E-2,-6.544984877E-3
1.777581042E1,-1.919862116E-3,1.603957638E-2,-5.672320258E-3
1.779581042E1,-2.443460980E-4,-6.457717973E-4,-2.286381321E-3
1.781581198E1,7.679448463E-4,-8.011061698E-3,-2.792526793E-4
1.783581042E1,-9.948377265E-4,-3.735004691E-3,-9.250245057E-4
1.785581042E1,3.193952609E-3,6.754423957E-3,1.972222002E-3
1.787581042E1,4.363323096E-4,8.534659632E-3,9.250245057E-4
1.789581198E1,5.183627829E-3,8.779006079E-3,6.265731994E-3
1.791581042E1,4.485496320E-3,1.221730467E-2,5.829399452E-3
1.793581042E1,1.186823938E-3,1.890191622E-2,4.310963210E-3
1.795581198E1,-2.862340072E-3,1.394518092E-2,2.268928103E-3
1.797581042E1,-4.363323096E-4,8.098327555E-3,-1.692969352E-3
1.799580886E1,4.660028964E-3,3.298672382E-3,-4.590216093E-3
1.801581042E1,4.345869645E-3,5.742133129E-3,-7.190756500E-3
1.803581199E1,1.343903481E-3,1.059414819E-2,-4.956734832E-3
1.805581042E1,-8.203047328E-4,1.326450240E-2,-3.560471581E-3
1.807581042E1,-8.726646047E-5,1.244419720E-2,-3.525565146E-3
1.809581198E1,2.286381321E-3,1.225221157E-2,-1.658062800E-3
1.811581042E1,2.338741207E-3,1.300270297E-2,-1.518436475E-3
1.813581042E1,1.832595677E-3,6.859143730E-3,1.186823938E-3
1.815580886E1,5.410520826E-4,1.057669520E-2,1.570796361E-3
1.817581199E1,-1.972222002E-3,5.689773243E-3,-2.076941775E-3
1.819581042E1,-4.625122529E-3,-1.815142459E-3,-3.961897455E-3
1.821581042E1,-2.181661548E-3,3.996803891E-3,-1.588249579E-3
1.823581198E1,3.211405827E-3,1.884955540E-2,-8.726646047E-5
1.825581198E1,7.068583276E-3,2.659881860E-2,-1.396263397E-4
1.827581042E1,5.044001620E-3,3.551745042E-2,-4.468042869E-3
1.829581042E1,1.134464052E-3,2.115339041E-2,-5.340707488E-3
1.831581198E1,-3.124139272E-3,1.541125681E-2,-8.133234456E-3
1.833581042E1,8.901178953E-4,2.462659590E-2,-1.340412907E-2
1.835581042E1,6.876597181E-3,2.577851340E-2,-1.083849464E-2
1.837581042E1,4.729842301E-3,2.619739249E-2,-4.014257283E-4
1.839581198E1,-1.675516134E-3,1.518436428E-2,5.846852902E-3
1.841581042E1,-7.923794910E-3,9.756390937E-3,7.853981806E-4
1.843581042E1,-1.373574138E-2,2.869321220E-2,-5.742133129E-3
1.845581198E1,-1.190314535E-2,2.979277074E-2,-8.726646192E-4
1.847581042E1,-1.179842558E-2,9.354964830E-3,-1.919862116E-3
1.849580886E1,-1.919862116E-3,2.207841538E-2,-4.084070213E-3
1.851581042E1,1.973967440E-2,5.305800959E-2,-3.001966281E-3
1.853581199E1,3.155555204E-2,7.059856504E-2,9.075712296E-4
1.855581042E1,3.752457723E-2,7.887142897E-2,7.504915819E-3
1.857581042E1,4.302236438E-2,7.354817539E-2,8.726646192E-3
1.859581198E1,4.359832406E-2,6.602580845E-2,-4.537856148E-4
1.861581042E1,3.813544288E-2,4.016002640E-2,-1.209513191E-2
1.863581042E1,3.139847144E-2,1.317723561E-2,-1.888446324E-2
1.865581042E1,2.745402977E-2,-1.710422686E-3,-1.804670505E-2
1.867581042E1,3.691371530E-2,2.502802201E-2,-2.054252476E-2
1.869581042E1,4.597197101E-2,4.267330095E-2,-1.047197543E-2
1.871581042E1,5.396557972E-2,3.460988030E-2,-8.028514567E-4
1.873581198E1,5.016076192E-2,1.815142483E-2,-4.572762642E-3
1.875581198E1,3.920009360E-2,1.143190637E-2,-1.275835652E-2
1.877581042E1,3.625048697E-2,1.155408006E-2,-1.684242673E-2
1.879581042E1,3.637266159E-2,1.638864167E-2,-1.010545623E-2
1.881581198E1,3.888593614E-2,2.595304511E-2,-1.762782573E-3
1.883581042E1,4.258603230E-2,1.589994878E-2,1.413716702E-3
1.885581042E1,4.277801886E-2,4.084070213E-3,7.225662936E-3
1.887581042E1,4.625122622E-2,1.043706853E-2,1.103048120E-2
1.889581198E1,4.878195375E-2,2.715732343E-2,1.200786512E-2
1.891581042E1,4.790928960E-2,3.811798990E-2,6.021386012E-3
1.893581042E1,4.776966199E-2,2.680825815E-2,2.443460980E-4
1.895581198E1,4.574507847E-2,1.928588748E-2,2.164208330E-3
1.897581042E1,5.335471407E-2,3.014183603E-2,8.988445625E-3
1.899580886E1,5.422737822E-2,4.361577705E-2,1.151917316E-2
1.901581042E1,5.541420355E-2,4.120722413E-2,9.477137588E-3
1.903581199E1,5.759586394E-2,4.550073296E-2,9.302604944E-3
1.905581042E1,6.075491011E-2,4.920083284E-2,2.164208330E-3
1.907581042E1,6.316346675E-2,4.276056588E-2,-1.832595677E-3
1.909581198E1,6.440264732E-2,4.284783453E-2,2.565633971E-3
1.911581042E1,6.408849359E-2,4.944517836E-2,1.047197543E-2
1.913581042E1,6.946410239E-2,6.368706375E-2,1.389282104E-2
1.915581042E1,7.559020817E-2,9.009389579E-2,1.780235767E-2
1.917581199E1,8.052948862E-2,9.649925679E-2,2.520255372E-2
1.919581042E1,7.630579174E-2,8.646360785E-2,3.844960406E-2
1.921581042E1,7.515387982E-2,7.876671106E-2,4.099778458E-2
1.923581198E1,7.864453644E-2,8.958774805E-2,3.382448107E-2
1.925581198E1,8.114035428E-2,1.013687253E-1,2.682571113E-2
1.927581042E1,8.498007804E-2,1.110902056E-1,2.296853252E-2
1.929581042E1,8.553858846E-2,1.058891267E-1,2.481858246E-2
1.931581198E1,8.196066320E-2,9.639453143E-2,2.642428502E-2
1.933581042E1,7.862707973E-2,8.925613761E-2,2.349213138E-2
1.935581042E1,6.836454570E-2,7.592181861E-2,1.698205434E-2
1.937581042E1,5.902703479E-2,5.003859103E-2,1.235693134E-2
1.939581198E1,6.333799660E-2,1.672025397E-2,8.325220086E-3
1.941581042E1,7.686430216E-2,-1.033234876E-2,1.218239777E-2
1.943581042E1,1.076868176E-1,-7.712610066E-2,9.529497474E-3
1.945581198E1,1.072853878E-1,-3.902556375E-2,1.576032303E-2
1.947581042E1,7.883652300E-2,3.925245628E-2,6.789330859E-3
1.949580886E1,8.302531391E-2,-1.747074537E-2,-5.061454722E-4
1.951581042E1,7.504915446E-2,-6.953391433E-2,1.221730490E-4
1.953581199E1,3.839724511E-2,-3.549999744E-2,1.167625282E-2
1.955581042E1,2.199114859E-2,-1.085594762E-2,6.178465672E-3
1.957581042E1,2.583087236E-2,-3.234095126E-2,7.766715251E-3
1.959581198E1,1.905899495E-2,-1.895427518E-2,1.146681327E-2
1.961581042E1,1.055924222E-2,-7.190756500E-3,1.703441329E-2
1.963581042E1,1.261873078E-2,-9.878563695E-3,2.261946723E-2
1.965581042E1,1.935570128E-2,-1.310742274E-2,2.902482450E-2
1.967581199E1,1.352630183E-2,1.727875904E-3,2.663372457E-2
1.969581042E1,7.033676840E-3,5.689773243E-3,1.462585945E-2
1.971581042E1,1.895427518E-2,-2.082177810E-2,9.320057929E-3
1.973581198E1,3.527310491E-2,-3.597123548E-2,7.888888009E-3
1.975581198E1,3.349286690E-2,-9.232792072E-3,4.363323096E-3
1.977581042E1,2.989749052E-2,-1.443387289E-2,-6.510077976E-3
1.979581042E1,2.809980139E-2,-2.029817924E-2,-8.325220086E-3
1.981581198E1,2.223549411E-2,-1.256637042E-3,-9.634217247E-3
1.983581042E1,3.275983036E-2,-1.158898603E-2,-1.036725566E-2
1.985581042E1,3.403392062E-2,1.047197584E-4,-1.183333248E-2
1.987581042E1,2.754129469E-2,1.085594762E-2,-1.450368576E-2
1.989581198E1,2.494075522E-2,1.797689125E-3,-1.303760987E-2
1.991581042E1,2.323033288E-2,4.939281847E-3,-1.256637042E-3
1.993581042E1,2.268928103E-2,1.391027402E-2,5.201081280E-3
1.995581198E1,2.631956525E-2,1.429424621E-2,9.878563695E-3
1.997581042E1,3.101450019E-2,2.375393175E-2,6.248278543E-3
1.999580886E1,2.619739249E-2,3.923500329E-2,1.431170036E-3
2.001580886E1,2.316051908E-2,3.663446009E-2,6.440265104E-3
2.003581199E1,2.384119667E-2,2.764601447E-2,1.041961554E-2
2.005581042E1,2.654645778E-2,2.717477642E-2,5.270894151E-3
2.007581042E1,2.501056902E-2,3.546509147E-2,1.099557383E-3
2.009581198E1,2.731440216E-2,3.197443113E-2,5.480333697E-3
2.011581042E1,2.544690110E-2,3.436553106E-2,5.951572675E-3
2.013581042E1,1.576032303E-2,2.249729447E-2,5.235987483E-4
2.015581042E1,1.085594762E-2,9.128072299E-3,-5.794493016E-3
2.017581199E1,1.204277202E-2,3.263765713E-3,-3.926991019E-3
2.019581042E1,6.597344764E-3,-7.679448463E-4,-4.782202188E-3
2.021581042E1,2.530727303E-3,2.234021435E-3,-6.178465672E-3
2.023581198E1,6.283185212E-4,-4.293509759E-3,-7.731808349E-3
2.025581198E1,4.188789986E-3,-9.686577134E-3,-8.831365965E-3
2.027581042E1,5.270894151E-3,-8.395033889E-3,-1.061160211E-2
2.029581042E1,4.084070213E-3,-4.310963210E-3,-9.756390937E-3
2.031581198E1,-1.169370604E-3,-6.562437862E-3,-8.936085738E-3
2.033581042E1,-2.460914198E-3,-1.310742274E-2,-5.567600485E-3
2.035581042E1,-8.377580671E-4,-1.940806210E-2,-3.804817796E-3
2.037581042E1,5.235987483E-4,-5.288347602E-3,-8.726646047E-5
2.039581198E1,-2.391101094E-3,3.141592606E-4,-6.003932562E-3
2.041581042E1,-4.764748737E-3,3.822271014E-3,-2.565633971E-3
2.043581042E1,-6.981316954E-3,-1.221730490E-3,-5.619960371E-3
2.045581198E1,-1.069886796E-2,-9.075712413E-3,-5.759586580E-3
2.047581042E1,-1.343903504E-2,-1.230457146E-2,-1.256637042E-3
2.049580886E1,-1.080358773E-2,-2.865830623E-2,-1.256637042E-3
2.051581042E1,-1.410226058E-2,-2.638937905E-2,1.221730490E-4
2.053581199E1,-1.518436428E-2,-1.795943826E-2,-3.263765713E-3
2.055581042E1,-1.954768784E-2,-1.024508290E-2,-2.967059845E-4
2.057581042E1,-1.541125681E-2,-1.176351868E-2,-4.014257283E-4
2.059581198E1,-1.549852360E-2,-2.958333120E-2,-2.338741207E-3
2.061581042E1,-2.008873969E-2,-3.949680179E-2,-5.445427261E-3
2.063581042E1,-1.151917316E-2,-5.578072369E-2,-8.377580671E-4
2.065581042E1,-7.766715251E-3,-4.050909355E-2,-1.256637042E-3
2.067581199E1,-4.921828397E-3,-1.717403904E-2,-1.797689125E-3
2.069581042E1,-3.612831468E-3,-9.389871731E-3,-4.049163777E-3
2.071581042E1,-4.921828397E-3,-1.829105057E-2,-1.850049011E-3
2.073581042E1,-8.150687441E-3,-1.516691130E-2,-3.595378250E-3
2.075581198E1,-3.263765713E-3,-4.188790335E-4,-8.639379404E-3
2.077581042E1,-2.879793290E-3,2.513274085E-3,-6.579891313E-3
2.079581042E1,-7.592182141E-3,-4.293509759E-3,-2.687806962E-3
2.081581198E1,-7.941247895E-3,-3.159045940E-3,-1.343903481E-3
2.083581042E1,-6.981316954E-3,-5.619960371E-3,-2.809980186E-3
2.085581042E1,-9.477137588E-3,-1.935570128E-2,-9.599311277E-3
2.087581042E1,-1.411971357E-2,-2.789036185E-2,-1.396263391E-2
2.089581198E1,-1.696459949E-2,-2.509783395E-2,-1.123992074E-2
2.091581042E1,-1.837831736E-2,-1.685987972E-2,-7.661995478E-3
2.093581042E1,-1.975712739E-2,-1.719149388E-2,-7.400196046E-3
2.095581198E1,-2.518510073E-2,-9.110618383E-3,-8.656833321E-3
2.097581042E1,-2.703515068E-2,-6.195918657E-3,-4.677482415E-3
2.099580886E1,-3.192207217E-2,-1.218239777E-2,-1.937315450E-3
2.101581042E1,-3.347541392E-2,-1.712168008E-2,-4.572762642E-3
2.103581199E1,-3.342305496E-2,-1.403244678E-2,-5.829399452E-3
2.105581042E1,-2.775073424E-2,-1.736602560E-2,-5.096361507E-3
2.107581042E1,-1.982693933E-2,-1.851794310E-2,-2.862340072E-3
2.109581198E1,-2.508038096E-2,-6.003932562E-3,-4.363323096E-4
2.111581042E1,-2.700024284E-2,-6.667157635E-3,-1.570796361E-3
2.113581042E1,-2.631956525E-2,-4.520402756E-3,-4.729842301E-3
2.115581042E1,-2.911209129E-2,-5.166174378E-3,-7.435102481E-3
2.117581199E1,-2.553416602E-2,-1.431170013E-2,-4.118977115E-3
2.119581042E1,-2.040289901E-2,-1.900663599E-2,-3.193952609E-3
2.121581042E1,-2.317797206E-2,-1.719149388E-2,-9.180432186E-3
2.123581042E1,-2.464404888E-2,-1.795943826E-2,-1.282817032E-2
2.125581198E1,-2.291617356E-2,-2.644173801E-2,-1.246165112E-2
2.127581042E1,-1.743583940E-2,-3.743731230E-2,-8.325220086E-3
2.129581042E1,-2.036799304E-2,-3.790855035E-2,-2.146754880E-3
2.131581198E1,-2.422516979E-2,-2.691297606E-2,-2.042035107E-3
2.133581042E1,-2.049016580E-2,-1.946042106E-2,-5.270894151E-3
2.135581042E1,-1.897172816E-2,-2.616248466E-2,-7.784168236E-3
2.137581042E1,-1.750565320E-2,-4.256857932E-2,-6.649704650E-3
2.139581198E1,-1.495747175E-2,-4.818854108E-2,-9.389871731E-3
2.141581042E1,-1.577777602E-2,-3.902556375E-2,-1.240929123E-2
2.143581042E1,-1.492256485E-2,-3.928736225E-2,-1.394518092E-2
2.145581198E1,-1.183333248E-2,-3.911282867E-2,-1.001818944E-2
2.147581042E1,-1.179842558E-2,-3.344050795E-2,-9.669124149E-3
2.149580886E1,-1.389282104E-2,-2.923426405E-2,-9.005898610E-3
2.151581042E1,-1.111774705E-2,-3.745476529E-2,-1.064650808E-2
2.153581199E1,-6.876597181E-3,-4.152138159E-2,-6.318091881E-3
2.155581042E1,-1.115265395E-2,-3.377212211E-2,-2.967059612E-3
2.157581042E1,-4.799655639E-3,-3.466223925E-2,-7.330382941E-4
2.159581198E1,1.396263397E-4,-2.965314314E-2,-8.203047328E-4
2.161581042E1,-1.431170036E-3,-1.253146399E-2,-2.356194425E-3
2.163581042E1,-4.310963210E-3,-5.864306353E-3,-3.316125600E-3
2.165581042E1,-3.159045940E-3,-8.883725852E-3,-4.555309191E-3
2.167581199E1,-3.351032268E-3,-1.382300723E-2,-2.705260413E-3
2.169581042E1,-3.857177682E-3,1.745329238E-3,-4.118977115E-3
2.171581042E1,-2.530727303E-3,8.953538723E-3,-3.630284918E-3
2.173580886E1,2.967059845E-4,6.335545331E-3,-6.161012221E-3
2.175581198E1,-2.268928074E-4,6.143558770E-3,-4.764748737E-3
2.177581042E1,-2.076941775E-3,6.754423957E-3,-7.784168236E-3
2.179581042E1,-1.483529806E-3,1.169370604E-3,-8.342674002E-3
2.181581198E1,-1.989675453E-3,-5.934119690E-4,-2.565633971E-3
2.183581042E1,-1.274090377E-3,7.801621687E-3,-8.203047328E-4
2.185581042E1,0.000000000E0,1.872738265E-2,1.396263397E-4
2.187581042E1,-3.839724232E-3,2.202605456E-2,-1.797689125E-3
2.189581198E1,-6.352998316E-3,1.242674422E-2,-2.426007763E-3
2.191581042E1,-6.492624991E-3,3.351032268E-3,-7.679448463E-4
2.193581042E1,-7.452555932E-3,-3.316125600E-3,-6.963863503E-3
2.195581198E1,-9.180432186E-3,-5.899212789E-3,-1.223475765E-2
2.197581042E1,-1.354375482E-2,9.599310579E-4,-1.895427518E-2
2.199580886E1,-9.424777701E-3,-1.815142459E-3,-1.919862255E-2
2.201581042E1,-6.998770405E-3,-9.110618383E-3,-1.219985168E-2
2.203581199E1,-1.188569237E-2,-1.658062800E-3,-4.066617228E-3
2.205581042E1,-1.455604564E-2,4.066617228E-3,-8.901178953E-4
2.207581042E1,-1.195550524E-2,-2.268928103E-3,-2.775073517E-3
2.209581198E1,-1.137954649E-2,-7.801621687E-3,-4.188789986E-3
2.211581198E1,-9.128072299E-3,-1.031489577E-2,-4.276056774E-3
2.213581042E1,-7.138396613E-3,-1.450368576E-2,-6.667157635E-3
2.215581042E1,-9.075712296E-4,-1.160643995E-2,-5.759586580E-3
2.217581199E1,2.617993741E-4,-1.413716702E-3,-4.468042869E-3
2.219581042E1,1.832595677E-3,3.403391922E-3,-7.417649496E-3
2.221581042E1,5.323254038E-3,0.000000000E0,-7.103490178E-3
2.223581042E1,4.049163777E-3,-2.932153177E-3,-1.143190637E-2
2.225581198E1,5.602506921E-3,-1.396263367E-3,-1.005309634E-2
2.227581042E1,8.360126987E-3,-2.111848444E-3,-5.061454605E-3
2.229581042E1,6.946410518E-3,-4.101523664E-3,-3.141592606E-4
2.231581198E1,6.824237294E-3,6.667157635E-3,-4.537856148E-4
2.233581042E1,7.033676840E-3,1.085594762E-2,-9.424777818E-4
2.235581042E1,5.916666240E-3,1.553343027E-3,1.762782573E-3
2.237581042E1,6.736970972E-3,1.919862116E-3,4.799655639E-3
2.239581198E1,5.358160939E-3,8.534659632E-3,4.782202188E-3
2.241581042E1,2.879793290E-3,9.407324716E-3,2.234021435E-3
2.243581042E1,2.408554312E-3,1.151917316E-2,-1.954768784E-3
2.245581198E1,1.005309634E-2,2.399827726E-2,-7.557275705E-3
2.247581042E1,1.357866172E-2,1.556833647E-2,1.884955564E-3
2.249580886E1,1.357866172E-2,1.026253588E-2,1.989675453E-3
2.251581042E1,1.244419720E-2,1.605702913E-3,6.946410518E-3
2.253581199E1,9.162978269E-3,-1.242674422E-2,4.258603323E-3
2.255581042E1,8.185594343E-3,-1.549852360E-2,2.460914198E-3
2.257581042E1,1.082104165E-2,-1.768018492E-2,3.926991019E-3
2.259581198E1,1.692969352E-2,-2.879793197E-2,-4.537856148E-4
2.261581198E1,1.509709843E-2,-1.919862116E-3,-2.251474652E-3
2.263581042E1,4.555309191E-3,-8.691739291E-3,5.707226694E-3
2.265581042E1,5.009094719E-3,-1.729621366E-2,4.450589418E-3
2.267581199E1,7.330382941E-4,-1.535889693E-3,5.375613924E-3
2.269581042E1,-3.385938704E-3,8.779006079E-3,1.466076588E-3
2.271581042E1,-8.482299745E-3,5.201081280E-3,1.396263367E-3
2.273581042E1,-7.330382708E-3,-2.617993741E-4,5.550147034E-3
2.275581198E1,-9.948377265E-4,5.462880712E-3,3.071779385E-3
2.277581042E1,2.495820867E-3,1.418952644E-2,9.424777701E-3
2.279581042E1,1.570796303E-4,1.993165910E-2,7.330382708E-3
2.281581198E1,-4.188790335E-4,2.338741161E-2,5.759586347E-4
2.283581042E1,-2.792526793E-4,1.202531811E-2,-1.745329238E-3
2.285581042E1,1.127482671E-2,-1.045452245E-2,-2.967059845E-4
2.287581042E1,1.342158206E-2,-1.029744279E-3,-1.169370604E-3
2.289581198E1,1.150172018E-2,9.738937020E-3,2.460914198E-3
2.291581042E1,1.345648803E-2,1.752310619E-2,2.635447076E-3
2.293581042E1,1.108284108E-2,1.827359758E-2,4.136430100E-3
2.295581198E1,6.475171540E-3,1.679006778E-2,-6.108652451E-4
2.297581042E1,5.497787148E-3,5.777040031E-3,-1.710422686E-3
2.299580886E1,2.827433404E-3,6.422811653E-3,-5.218534265E-3
2.301581042E1,1.186823938E-3,3.979350906E-3,-5.340707488E-3
2.303581199E1,1.221730490E-3,-1.291543595E-3,1.378810150E-3
2.305581042E1,-3.403391922E-3,-1.010545623E-2,-1.919862116E-4
2.307585261E1,-5.462880712E-3,-1.240929123E-2,-4.537856148E-4
2.309581198E1,-4.276056774E-3,-5.829399452E-3,1.553343027E-3
2.311581198E1,3.316125658E-4,-8.883725852E-3,1.418952644E-2
2.313581042E1,3.141592606E-4,-8.639379404E-3,4.328416660E-3
2.315581042E1,5.078908056E-3,-4.118977115E-3,6.876597181E-3
2.317581199E1,5.445427261E-3,1.745329209E-4,2.268928103E-3
2.319581042E1,3.036872949E-3,4.171337001E-3,2.740166849E-3
2.321581042E1,-2.792526735E-3,7.155850064E-3,-4.712388909E-4
2.323581042E1,-3.630284918E-3,5.323254038E-3,-4.537856148E-4
2.325581198E1,-5.044001620E-3,-4.956734832E-3,-1.919862116E-4
2.327581042E1,-3.595378250E-3,-1.155408006E-2,1.343903481E-3
2.329581042E1,-2.635447076E-3,-8.587019518E-3,-3.839724232E-4
2.331581198E1,-7.033676840E-3,-9.250245057E-3,-1.117010717E-3
2.333581042E1,-8.464846760E-3,-1.534144394E-2,-7.714355364E-3
2.335581042E1,-1.012290921E-2,-1.345648803E-2,-1.247910410E-2
2.337581042E1,-7.888888009E-3,-8.307767101E-3,-1.507964451E-2
2.339581198E1,-8.098327555E-3,1.762782573E-3,4.886921961E-4
2.341581042E1,-5.864306353E-3,8.604473434E-3,7.679448463E-4
2.343581042E1,-7.592182141E-3,3.665191354E-3,6.806784077E-4
2.345581198E1,-9.442231618E-3,-1.396263397E-4,-1.710422686E-3
2.347581042E1,-3.106686054E-3,-4.153883550E-3,-3.368485486E-3
2.349580886E1,4.817108624E-3,-5.934119690E-4,5.462880712E-3
2.351581042E1,6.440265104E-3,6.684611086E-3,0.000000000E0
2.353581199E1,4.677482415E-3,2.049016580E-2,8.028514567E-4
2.355581042E1,2.583087189E-3,2.389355749E-2,2.775073517E-3
2.357581042E1,1.658062800E-3,1.535889693E-2,3.054326167E-3
2.359581198E1,1.605702913E-3,5.567600485E-3,4.380776547E-3
2.361581198E1,8.552113432E-4,1.623156248E-3,1.448623254E-3
2.363581042E1,-1.047197584E-4,0.000000000E0,3.124139272E-3
2.365581042E1,1.396263397E-4,1.389282104E-2,6.230825558E-3
2.367581199E1,-2.303834539E-3,7.976154797E-3,3.787364578E-3
2.369581042E1,-9.948377265E-4,-1.413716702E-3,1.570796303E-4
2.371581042E1,1.745329238E-3,-1.919862116E-3,-1.640609466E-3
2.373581042E1,2.967059612E-3,7.766715251E-3,-3.228859045E-3
2.375581198E1,2.303834539E-3,6.091198884E-3,9.250245057E-4
2.377581198E1,3.839724232E-4,-2.705260413E-3,7.016223390E-3
2.379581042E1,1.745329246E-5,4.433136433E-3,7.644542027E-3
2.381581198E1,3.298672382E-3,1.003564335E-2,2.338741207E-3
2.383581042E1,3.438298590E-3,2.024581889E-3,-4.363323096E-4
2.385581042E1,-4.694935866E-3,-8.063420653E-3,2.443460980E-4
2.387581042E1,-1.059414819E-2,-9.686577134E-3,1.832595677E-3
2.389581198E1,-9.913469665E-3,-9.354964830E-3,8.377580671E-4
2.391581198E1,-7.888888009E-3,-8.255407214E-3,-9.599310579E-4
2.393581042E1,-3.700098023E-3,-6.003932562E-3,-5.201081280E-3
2.395581355E1,-7.853981806E-4,-1.027998887E-2,-6.510077976E-3
2.397581198E1,1.151917269E-3,-9.826203808E-3,2.443460980E-4
2.399581042E1,-2.251474652E-3,-1.387536712E-2,8.203047328E-4
2.401581042E1,-5.410520826E-3,-1.308996975E-2,3.089232836E-3
2.403581199E1,1.064650831E-3,-7.068583276E-3,1.012290944E-3
2.405581199E1,-8.203047328E-4,-1.446877979E-2,1.815142459E-3
2.407581198E1,1.396263367E-3,-2.157226950E-2,-3.665191471E-4
2.409581198E1,4.153883550E-3,-2.146754973E-2,3.490658492E-5
2.411581198E1,4.188790335E-4,-1.788962446E-2,-4.363323096E-4
2.413581042E1,1.029744279E-3,-1.598721556E-2,-3.036872949E-3
2.415581042E1,2.548180753E-3,-3.857177682E-3,-7.609635592E-3
2.417581199E1,6.998770405E-3,-5.986479111E-3,-1.710422710E-2
2.419581042E1,6.806784077E-4,-2.234021388E-2,-1.511455141E-2
2.421581042E1,9.948377265E-4,-2.005383372E-2,-1.097812131E-2
2.423581042E1,3.560471581E-3,-8.272860199E-3,-1.850049011E-3
2.425581198E1,3.735004691E-3,1.588249579E-3,2.565633971E-3
2.427581042E1,2.076941775E-3,4.572762642E-3,3.525565146E-3
2.429581042E1,3.543018363E-3,1.291543595E-3,7.679448463E-4
2.431581198E1,4.188789986E-3,-3.804817796E-3,1.186823938E-3
2.433581042E1,5.235987483E-4,1.343903481E-3,4.206243437E-3
2.435581042E1,2.129301662E-3,-6.213372108E-3,3.700098023E-3
2.437581042E1,5.410520826E-3,-2.478367416E-3,7.330382941E-4
2.439581198E1,1.233947743E-2,6.579891313E-3,8.028514567E-4
2.441581042E1,1.103048120E-2,2.967059845E-4,-3.211405827E-3
2.443581042E1,3.822271014E-3,-3.316125658E-4,-1.762782573E-3
2.445581198E1,1.082104165E-3,-8.656833321E-3,-1.553343027E-3
2.447581042E1,-6.806784077E-4,-8.709193207E-3,-2.757620299E-3
2.449580886E1,-1.535889693E-3,-4.782202188E-3,-3.735004691E-3
2.451581042E1,-2.809980186E-3,-5.532693584E-3,-3.700098023E-3
2.453581199E1,1.745329246E-5,2.094395168E-4,5.235987919E-5
2.455581042E1,3.473205259E-3,1.640609466E-3,-8.552113432E-4
2.457581042E1,2.391101094E-3,-1.117010717E-3,-5.759586347E-4
2.459581198E1,2.967059612E-3,5.393067375E-3,-4.904375412E-3
2.461581198E1,3.455751808E-3,8.185594343E-3,-1.588249579E-3
2.463581042E1,6.806783844E-3,1.308996975E-2,-1.396263397E-4
2.465581042E1,6.824237294E-3,1.562069636E-2,8.028514567E-4
2.467581199E1,8.063420653E-3,2.375393175E-2,-6.370451767E-3
2.469581042E1,2.705260413E-3,8.691739291E-3,-6.579891313E-3
2.471581199E1,1.675516134E-3,-3.089232836E-3,-5.689773243E-3
2.473581042E1,3.263765713E-3,-9.826203808E-3,-6.073745899E-3
2.475581198E1,3.595378250E-3,-1.727875904E-3,-5.515240598E-3
2.477581042E1,4.153883550E-3,-2.164208330E-3,-8.552113432E-4
2.479581042E1,1.675516134E-3,-6.946410518E-3,-6.283185212E-4
2.481581198E1,1.745329246E-5,6.806784077E-4,-5.131267942E-3
2.483581042E1,2.670353744E-3,-6.283185445E-3,-5.934119225E-3
2.485581042E1,9.599311277E-3,-4.188789986E-3,-8.901178953E-4
2.487581042E1,1.047197543E-2,4.991641734E-3,-5.567600485E-3
2.489581198E1,7.609635592E-3,2.862340072E-3,-6.335545331E-3
2.491581198E1,4.834562074E-3,1.850049011E-3,-3.420845373E-3
2.493581042E1,1.237438433E-2,8.447393775E-3,-1.012290944E-3
2.495581198E1,1.281071641E-2,1.607448235E-2,-4.886921961E-4
2.497581042E1,4.101523664E-3,1.226966456E-2,-9.023352526E-3
2.499580886E1,1.762782573E-3,1.404990070E-2,-2.251474652E-3
2.501581042E1,4.537856206E-3,7.976154797E-3,-5.742133129E-3
2.503581199E1,1.658062800E-3,1.745329246E-5,-6.161012221E-3
2.505581042E1,-4.101523664E-3,-1.500983140E-3,-3.473205259E-3
2.507581198E1,-2.303834539E-3,-2.757620299E-3,5.759586347E-4
2.509581198E1,1.570796303E-4,1.780235791E-3,1.745329246E-5
2.511581042E1,2.757620299E-3,2.094395168E-4,-1.396263397E-4
2.513581042E1,1.413716702E-3,5.078908056E-3,-3.193952609E-3
2.515581042E1,2.356194425E-3,4.886921961E-3,-4.607669078E-3
2.517581199E1,5.811946467E-3,-4.886921961E-4,-5.183627829E-3
2.519581042E1,7.522369269E-3,-5.113814492E-3,-9.250245057E-3
2.521581042E1,5.724680144E-3,-1.012290944E-3,-5.916666240E-3
2.523581042E1,1.710422686E-3,-9.250245057E-4,-4.276056774E-3
2.525581042E1,1.640609466E-3,-7.138396613E-3,3.316125658E-4
2.527581042E1,6.981316983E-5,-9.773843922E-3,-2.007128671E-3
2.529581042E1,-2.775073517E-3,-8.342674002E-3,-7.522369269E-3
2.531581198E1,-2.600540640E-3,-6.318091881E-3,-5.323254038E-3
2.533581199E1,1.047197584E-4,-9.128072299E-3,-2.478367416E-3
2.535581042E1,-4.712388909E-4,-9.843656793E-3,1.082104165E-3
2.537581042E1,-1.151917269E-3,-5.044001620E-3,-1.797689125E-3
2.539581198E1,-3.665191471E-4,2.007128671E-3,-1.151917269E-3
2.541581042E1,1.378810150E-3,3.263765713E-3,-2.024581889E-3
2.543581042E1,4.677482415E-3,-1.326450263E-3,-9.773843922E-4
2.545581198E1,4.485496320E-3,-5.410520826E-3,-1.099557383E-3
2.547581042E1,3.385938704E-3,-3.839724232E-4,-1.902408898E-3
2.549581042E1,3.420845373E-3,-4.118977115E-3,-5.619960371E-3
2.551581042E1,9.686577134E-3,-6.021386012E-3,-7.155850064E-3
2.553581199E1,1.300270297E-2,6.300638430E-3,-6.457718089E-3
2.555581042E1,1.073377486E-2,1.874483563E-2,-5.934119225E-3
2.557581042E1,1.141445339E-2,2.125811018E-2,-4.520402756E-3
2.559581198E1,1.361356769E-2,2.895501256E-2,-2.792526793E-4
2.561581198E1,1.455604564E-2,2.316051908E-2,-5.078908056E-3
2.563581042E1,1.432915311E-2,1.247910410E-2,-7.051130291E-3
2.565581042E1,1.394518092E-2,6.178465672E-3,-3.281218931E-3
2.567581199E1,2.160717547E-2,1.204277156E-3,2.932153177E-3
2.569581042E1,1.944296807E-2,1.446877979E-2,-2.094395168E-4
2.571581042E1,1.258382387E-2,2.104867063E-2,-1.239183708E-3
2.573581042E1,3.560471581E-3,1.064650808E-2,1.500983140E-3
2.575581198E1,5.288347602E-3,2.652900526E-3,8.744099177E-3
2.577581042E1,8.517206647E-3,1.989675453E-3,3.001966281E-3
2.579581042E1,1.005309634E-2,9.983283468E-3,2.373647876E-3
2.581581198E1,8.342674002E-3,1.270599663E-2,-1.832595677E-3
2.583581042E1,4.537856206E-3,9.215338156E-3,3.647738136E-3
2.585581042E1,5.672320258E-3,-7.853981806E-4,1.033234876E-2
2.587581042E1,5.550147034E-3,-1.710422686E-3,9.581857361E-3
2.589581198E1,6.422811653E-3,7.976154797E-3,-4.066617228E-3
2.591581042E1,1.151917269E-3,2.268928103E-3,-1.745329246E-5
2.593581042E1,-1.640609466E-3,-1.448623254E-3,3.612831468E-3
2.595581198E1,-4.328416660E-3,-8.342674002E-3,1.043706853E-2
2.597581198E1,-7.557275705E-3,-9.354964830E-3,9.354964830E-3
2.599580886E1,-7.452555932E-3,-5.078908056E-3,6.510077976E-3
2.601581042E1,-4.921828397E-3,-9.704031050E-3,6.597344764E-3
2.603581199E1,-4.153883550E-3,-9.145525284E-3,6.998770405E-3
2.605581042E1,-4.834562074E-3,-7.661995478E-3,6.510077976E-3
2.607581042E1,-5.323254038E-3,3.979350906E-3,-1.850049011E-3
2.609581198E1,-2.251474652E-3,5.253441166E-3,8.045967668E-3
2.611581198E1,-5.951572675E-3,1.954768784E-3,1.014036313E-2
2.613581042E1,-6.457718089E-3,-5.131267942E-3,8.866272867E-3
2.615581042E1,-1.085594762E-2,-3.822271014E-3,8.168140426E-3
2.617581199E1,-1.178097259E-2,-7.766715251E-3,9.459684603E-3
2.619581042E1,-1.284562331E-2,-1.492256485E-2,9.005898610E-3
2.621581042E1,-1.165879890E-2,-1.549852360E-2,7.138396613E-3
2.623581042E1,-1.340412907E-2,-8.255407214E-3,-2.234021435E-3
2.625581198E1,-8.936085738E-3,-2.237512171E-2,9.058258496E-3
2.627581042E1,-7.330382941E-4,-3.640756756E-2,9.424777701E-3
2.629581042E1,3.228859045E-3,-3.946189582E-2,1.239183731E-2
2.631581199E1,-2.757620299E-3,-1.754055917E-2,3.490658492E-5
2.633581042E1,-5.881759338E-3,-1.104793418E-2,6.632251316E-4
2.635581042E1,-1.780235791E-3,-9.180432186E-3,3.490658419E-4
2.637581042E1,-5.061454722E-4,-7.260569837E-3,4.677482415E-3
2.639581198E1,-5.846852902E-3,-7.330382708E-3,2.268928074E-4
2.641581042E1,-6.283185445E-3,-2.635447076E-3,-2.792526735E-3
2.643581042E1,-1.000073645E-2,-3.298672382E-3,1.343903481E-3
2.645581198E1,-1.129228063E-2,-3.804817796E-3,1.047197584E-4
2.647581042E1,-1.774999872E-2,-8.185594343E-3,-7.679448463E-4
2.649580886E1,-1.843067631E-2,-1.223475765E-2,-1.134464052E-3
2.651581042E1,-1.513200440E-2,-3.525565146E-3,8.377580671E-4
2.653581199E1,-1.022762898E-2,-9.058258496E-3,2.059488557E-3
2.655581042E1,-9.320057929E-3,-2.076941729E-2,2.024581889E-3
2.657581042E1,-9.983283468E-3,-2.090904489E-2,-1.745329209E-4
2.659580886E1,-1.117010694E-2,-1.333431527E-2,1.064650831E-3
2.661581198E1,-9.494591504E-3,-4.869468510E-3,1.083849464E-2
2.663581042E1,-1.066396199E-2,-5.829399452E-3,1.226966456E-2
2.665581042E1,-2.129301615E-2,-8.726646192E-3,1.132718660E-2
2.667581199E1,-2.120575123E-2,-8.866272867E-3,6.771877408E-3
2.669581042E1,-1.178097259E-2,-1.937315450E-3,7.976154797E-3
2.671581042E1,-1.485275198E-2,-2.588323317E-2,1.219985168E-2
2.673581042E1,-1.811651699E-2,-2.110103145E-2,9.861109778E-3
2.675581198E1,-1.785471849E-2,-1.146681327E-2,5.288347602E-3
2.677581042E1,-1.525417715E-2,-5.550147034E-3,7.504915702E-4
2.679581042E1,-1.574287005E-2,-2.679080330E-2,-5.061454722E-4
2.681581199E1,-1.288053021E-2,-2.427753061E-2,-2.513274085E-3
2.683581042E1,-1.211258490E-2,-5.934119225E-3,-3.700098023E-3
2.685581042E1,-1.504473854E-2,5.934119690E-4,-3.839724232E-3
2.687581042E1,-1.841322333E-2,-4.468042869E-3,-2.583087189E-3
2.689581198E1,-1.823868975E-2,-6.108652335E-3,-5.410520826E-4
2.691581042E1,-2.124065720E-2,-2.268928074E-4,-2.076941775E-3
2.693581042E1,-1.741838641E-2,4.747295752E-3,-7.504915702E-4
2.695581198E1,-1.487020496E-2,3.630284918E-3,6.841690745E-3
2.697581042E1,-1.385791413E-2,-5.235987483E-4,1.082104165E-3
2.699580886E1,-6.300638430E-3,1.172861271E-2,6.981316983E-5
2.701581042E1,-6.754423957E-3,9.162978269E-3,-3.385938704E-3
2.703581199E1,-7.731808349E-3,5.061454722E-4,-6.370451767E-3
2.705581042E1,-1.511455141E-2,-4.642575979E-3,-8.604473434E-3
2.707581042E1,-1.291543618E-2,-1.260127686E-2,-5.218534265E-3
2.709581042E1,-1.057669520E-2,-2.059488557E-2,-4.834562074E-3
2.711581042E1,-9.546951391E-3,-9.442231618E-3,5.235987919E-5
2.713581042E1,-9.110618383E-3,-1.738347858E-2,7.417649496E-3
2.715581042E1,-9.756390937E-3,-2.138028294E-2,5.567600485E-3
2.717581199E1,-1.117010694E-2,-2.089159191E-2,-3.106686054E-3
2.719581042E1,-1.254891697E-2,-2.127556317E-2,-1.076868176E-2
2.721581042E1,-6.928957067E-3,-1.652826741E-2,-1.628392190E-2
2.723581042E1,-1.623156248E-3,-1.698205434E-2,-1.188569237E-2
2.725581042E1,3.316125658E-4,-2.090904489E-2,-2.862340072E-3
2.727581042E1,1.431170036E-3,-9.407324716E-3,6.108652451E-4
2.729581042E1,3.543018363E-3,-1.343903481E-3,-2.932153177E-3
2.731581199E1,6.457717973E-4,0.000000000E0,-3.124139272E-3
2.733581199E1,-6.806784077E-4,1.954768784E-3,-2.722713631E-3
2.735581042E1,-5.026548170E-3,-4.293509759E-3,-1.937315450E-3
2.737581042E1,-6.632251316E-4,-7.661995478E-3,1.588249579E-3
2.739581198E1,6.248278543E-3,2.111848444E-3,6.283185445E-3
2.741581042E1,1.110029407E-2,1.384046115E-2,1.570796361E-3
2.743581042E1,6.230825558E-3,1.357866172E-2,-4.502949305E-3
2.745581198E1,4.799655639E-3,3.577925032E-3,-6.824237294E-3
2.747581042E1,7.574729156E-3,3.700098023E-3,-7.243116386E-3
2.749580886E1,1.141445339E-2,2.232276089E-2,-1.151917269E-3
2.751581042E1,1.171115879E-2,2.977531776E-2,1.605702913E-3
2.753581199E1,1.021017600E-2,2.717477642E-2,1.640609466E-3
2.755581042E1,8.953538723E-3,2.511528693E-2,1.692969352E-3
2.757581042E1,1.021017600E-2,9.180432186E-3,-7.330382941E-4
2.759581042E1,1.190314535E-2,-6.632251316E-4,-1.919862116E-3
2.761581198E1,1.167625282E-2,1.624901593E-2,-8.203047328E-4
2.763581042E1,1.347394194E-2,1.837831736E-2,-1.692969352E-3
2.765581042E1,1.321214251E-2,1.048942842E-2,-3.281218931E-3
2.767581199E1,1.076868176E-2,5.585053470E-3,-3.333578818E-3
2.769581042E1,8.988445625E-3,1.219985168E-2,-4.852015525E-3
2.771581042E1,9.686577134E-3,1.092576142E-2,-7.225662936E-3
2.773581042E1,1.239183731E-2,-1.797689125E-3,-8.395033889E-3
2.775581198E1,9.930923581E-3,8.203047328E-4,-8.831365965E-3
2.777581042E1,6.579891313E-3,5.742133129E-3,-9.005898610E-3
2.779581042E1,9.372417815E-3,-9.424777818E-4,-8.621926419E-3
2.781581199E1,4.293509759E-3,-8.726646047E-5,-8.325220086E-3
2.783581042E1,2.722713631E-3,-5.864306353E-3,-7.819075137E-3
2.785581042E1,2.652900526E-3,-2.268928103E-3,-3.944444004E-3
2.787581042E1,8.429939859E-3,3.316125658E-4,-4.869468510E-3
2.789581198E1,8.203047328E-3,9.686577134E-3,-6.143558770E-3
2.791581042E1,7.766715251E-3,-1.082104165E-3,-4.293509759E-3
2.793581042E1,6.475171540E-3,-1.747074537E-2,-4.642575979E-3
2.795581198E1,5.532693584E-3,-1.745329238E-2,-1.221730490E-3
2.797581198E1,7.138396613E-3,-1.825614460E-2,-1.605702913E-3
2.799580886E1,1.157153305E-2,-1.361356769E-2,-7.504915702E-4
2.801581042E1,1.518436428E-2,-5.567600485E-3,-4.049163777E-3
2.803581199E1,1.638864167E-2,-5.427973811E-3,-4.118977115E-3
2.805581042E1,1.132718660E-2,9.599310579E-4,-3.874630900E-3
2.807581042E1,1.141445339E-2,-6.771877408E-3,-3.612831468E-3
2.809581042E1,1.246165112E-2,-4.729842301E-3,-1.972222002E-3
2.811581198E1,9.512044489E-3,7.923794910E-3,-7.557275705E-3
2.813581042E1,7.278022822E-3,1.748819835E-2,-5.654866807E-3
2.815581042E1,1.092576142E-2,1.432915311E-2,-6.283185212E-4
2.817581199E1,1.537635084E-2,4.782202188E-3,-1.064650831E-3
2.819581042E1,1.036725566E-2,1.034980267E-2,-3.665191471E-4
2.821581042E1,8.464846760E-3,2.012364566E-2,-4.502949305E-3
2.823581042E1,1.195550524E-2,2.120575123E-2,-4.084070213E-3
2.825581042E1,1.242674422E-2,2.218313515E-2,-1.500983140E-3
2.827581042E1,8.621926419E-3,2.455678210E-2,-8.726646047E-5
2.829581042E1,7.679448463E-3,2.261946723E-2,-4.101523664E-3
2.831581199E1,9.599310579E-4,1.755801216E-2,-1.448623254E-3
2.833581042E1,-5.166174378E-3,-1.762782573E-3,8.307767101E-3
2.835581042E1,-3.682644805E-3,-1.719149388E-2,5.846852902E-3
2.837581042E1,1.239183708E-3,-4.991641734E-3,6.265731994E-3
2.839581198E1,1.431170036E-3,9.756390937E-3,4.415682983E-3
2.841581042E1,-5.689773243E-3,6.876597181E-3,2.251474652E-3
2.843581042E1,-7.557275705E-3,-9.389871731E-3,6.632251199E-3
2.845581198E1,-6.230825558E-3,-1.652826741E-2,5.899212789E-3
2.847581199E1,-6.597344764E-3,-2.153736353E-2,-2.617993741E-4
2.849580886E1,-6.038838997E-3,-2.446951531E-2,-8.901178837E-3
2.851581042E1,-1.605702913E-3,-2.380629070E-2,-1.596976258E-2
2.853581199E1,-3.403391922E-3,-2.052507177E-2,-1.415462047E-2
2.855581042E1,-6.928957067E-3,-2.167698927E-2,-1.071632188E-2
2.857581042E1,-4.031710327E-3,-1.850049011E-2,-6.789330859E-3
2.859581042E1,-1.710422686E-3,-6.859143730E-3,-1.029744279E-3
2.861581198E1,-6.981316837E-4,4.607669078E-3,-9.773843922E-4
2.863581042E1,-6.335545331E-3,-5.358160939E-3,-2.076941775E-3
2.865581042E1,-5.969026126E-3,-1.684242673E-2,-4.258603323E-3
2.867581199E1,-9.599310579E-4,-2.350958437E-2,-8.098327555E-3
2.869581042E1,0.000000000E0,-1.544616371E-2,-4.817108624E-3
2.871581042E1,1.099557383E-3,-5.794493016E-3,-4.310963210E-3
2.873581042E1,4.310963210E-3,4.118977115E-3,-2.268928074E-4
2.875581198E1,1.151917269E-3,6.736970972E-3,1.727875904E-3
2.877581042E1,-2.844886621E-3,2.565633971E-3,2.967059612E-3
2.879581042E1,-4.572762642E-3,-1.972222002E-3,2.617993858E-3
2.881581199E1,-7.330382941E-4,-6.963863503E-3,1.658062800E-3
2.883581042E1,1.937315450E-3,-6.562437862E-3,8.028514567E-4
2.885581042E1,4.817108624E-3,2.967059845E-4,9.075712296E-4
2.887581042E1,2.757620299E-3,4.101523664E-3,6.283185212E-4
2.889581198E1,3.211405827E-3,7.539822254E-3,3.316125658E-4
2.891581042E1,5.585053470E-3,1.237438433E-2,3.141592606E-4
2.893581042E1,7.470009383E-3,1.499237865E-2,-8.726646047E-5
2.895581198E1,4.572762642E-3,4.729842301E-3,4.363323096E-4
2.897581199E1,7.679448463E-4,-1.396263397E-4,5.427973811E-3
2.899580886E1,3.316125658E-4,-9.965829551E-3,7.103490178E-3
2.901581042E1,1.466076588E-3,5.410520826E-4,0.000000000E0
2.903581199E1,-8.028514567E-4,4.345869645E-3,4.293509759E-3
2.905581042E1,-1.640609466E-3,1.518436475E-3,1.745329246E-5
2.907581042E1,-3.141592722E-3,-7.644542027E-3,5.235987483E-4
2.909581042E1,-4.502949305E-3,-1.865756884E-2,1.047197584E-4
2.911581198E1,-4.276056774E-3,-1.731366664E-2,-1.012290944E-3
2.913581042E1,-3.961897455E-3,-1.014036313E-2,-7.068583276E-3
2.915581042E1,-9.581857361E-3,-1.731366664E-2,-7.190756500E-3
2.917581199E1,-6.963863503E-3,-1.535889693E-2,-7.173303049E-3
2.919581042E1,-5.375613924E-3,-1.998401992E-2,-6.579891313E-3
2.921581042E1,-6.038838997E-3,-1.696459949E-2,-3.054326167E-3
2.923581042E1,-3.979350906E-3,-9.302604944E-3,-1.256637042E-3
2.925581198E1,-3.368485486E-3,-3.752457909E-3,-1.221730490E-4
2.927581042E1,-2.007128671E-3,-3.316125600E-3,-2.792526793E-4
2.929581042E1,-1.745329209E-4,1.361356815E-3,6.283185212E-4
2.931581199E1,4.956734832E-3,6.859143730E-3,4.694935866E-3
2.933581042E1,6.684611086E-3,1.399754081E-2,6.963863503E-3
2.935581042E1,6.475171540E-3,1.839577034E-2,4.468042869E-3
2.937581042E1,9.389871731E-3,2.640683204E-2,5.323254038E-3
2.939581198E1,1.380555425E-2,2.935643867E-2,3.420845373E-3
2.941581042E1,1.530653704E-2,2.274163999E-2,8.726646192E-4
2.943581042E1,1.122246683E-2,1.610938832E-2,1.745329209E-4
2.945581198E1,1.619665511E-2,1.713913307E-2,-7.435102481E-3
2.947581199E1,6.161012221E-3,-1.535889693E-3,-1.692969352E-3
2.949580886E1,5.253441166E-3,3.804817796E-3,-1.431170036E-3
2.951581042E1,1.064650831E-3,1.029744279E-3,2.967059845E-4
2.953581199E1,-2.949606394E-3,-3.560471581E-3,-7.330382941E-4
2.955581042E1,-3.926991019E-3,-8.534659632E-3,-3.036872949E-3
2.957581042E1,-9.320057929E-3,-1.251401100E-2,-6.492624991E-3
2.959581042E1,-4.834562074E-3,-2.272418700E-2,-6.806784077E-4
2.961581198E1,-6.527531426E-3,-2.911209129E-2,7.644542027E-3
2.963581042E1,-5.829399452E-3,-2.150245570E-2,5.654866807E-3
2.965581042E1,-2.984513063E-3,-5.375613924E-3,5.078908056E-3
2.967581199E1,-3.804817796E-3,-6.806784077E-4,4.991641734E-3
2.969581042E1,4.014257283E-4,-2.617993741E-4,4.642575979E-3
2.971581042E1,3.665191471E-4,-1.867502346E-3,2.600540640E-3
2.973581042E1,8.203047328E-4,6.981316983E-5,2.164208330E-3
2.975581198E1,9.424777818E-4,7.801621687E-3,-4.363323096E-4
2.977581042E1,1.745329209E-4,5.619960371E-3,-1.518436475E-3
2.979581042E1,2.234021435E-3,8.691739291E-3,4.276056774E-3
2.981581199E1,9.075712296E-4,-2.391101094E-3,4.572762642E-3
2.983581042E1,-1.431170036E-3,-4.031710327E-3,-7.330382941E-4
2.985581042E1,-1.151917269E-3,-4.607669078E-3,-3.351032268E-3
2.987581042E1,-8.377580671E-4,-6.143558770E-3,-3.071779385E-3
2.989581198E1,2.443460980E-3,-1.797689125E-3,-4.380776547E-3
2.991581042E1,2.844886621E-3,7.731808349E-3,-3.159045940E-3
2.993581198E1,-6.981316837E-4,7.016223390E-3,2.443460980E-4
2.995581198E1,-1.884955564E-3,4.904375412E-3,4.084070213E-3
2.997581199E1,2.426007763E-3,1.034980267E-2,4.590216093E-3
2.999580886E1,-6.108652451E-4,1.343903504E-2,2.984513063E-3
3.001581042E1,-4.276056774E-3,1.919862116E-3,6.108652335E-3
3.003581199E1,7.853981806E-4,9.581857361E-3,3.577925032E-3
3.005581042E1,4.258603323E-3,9.407324716E-3,2.391101094E-3
3.007581042E1,4.869468510E-3,6.702064537E-3,2.094394993E-3
3.009581042E1,6.946410518E-3,-1.431170036E-3,3.001966281E-3
3.011581198E1,-7.504915702E-4,-1.832595677E-3,4.537856206E-3
3.013581042E1,-3.071779385E-3,3.351032268E-3,1.014036313E-2
3.015581042E1,-4.817108624E-3,-6.108652451E-4,8.674286306E-3
3.017581199E1,-4.625122529E-3,-9.250245057E-3,4.485496320E-3
3.019581042E1,-8.447393775E-3,-1.031489577E-2,0.000000000E0
3.021581042E1,-9.669124149E-3,-1.399754081E-2,-4.433136433E-3
3.023581042E1,-6.736970972E-3,-2.097885683E-2,-4.433136433E-3
3.025581042E1,-1.466076588E-3,-2.007128671E-2,-7.068583276E-3
3.027581198E1,1.239183708E-3,-1.609193534E-2,-5.061454605E-3
3.029581042E1,5.235987483E-4,-5.113814492E-3,-2.617993858E-3
3.031581199E1,-1.902408898E-3,3.926991019E-3,1.954768784E-3
3.033581042E1,-3.054326167E-3,3.769911127E-3,-5.235987919E-5
3.035581042E1,-1.308996929E-3,2.164208330E-3,2.949606394E-3
3.037581042E1,9.599310579E-4,-9.773843922E-4,3.944444004E-3
3.039581198E1,1.745329209E-4,8.552113548E-3,3.822271014E-3
3.041581042E1,2.478367416E-3,8.482299745E-3,4.433136433E-3
3.043581042E1,1.518436475E-3,7.888888009E-3,6.213372108E-3
3.045581198E1,5.585053470E-3,1.731366664E-2,5.811946467E-3
3.047581199E1,6.161012221E-3,1.893682219E-2,-6.806784077E-4
3.049580886E1,1.186823938E-3,1.050688233E-2,-4.066617228E-3
3.051581042E1,-6.806784077E-4,-3.124139272E-3,-6.283185445E-3
3.053581199E1,-5.235987919E-5,-1.092576142E-2,-4.415682983E-3
3.055581042E1,2.530727303E-3,-1.937315450E-3,-1.378810150E-3
3.057581042E1,3.228859045E-3,4.502949305E-3,-4.555309191E-3
3.059581042E1,2.303834539E-3,-6.981316983E-5,-8.621926419E-3
3.061581198E1,4.014257283E-4,-1.462585945E-2,-2.216568217E-3
3.063581042E1,-6.719517522E-3,-2.398082428E-2,-1.797689125E-3
3.065581042E1,-5.497787148E-3,-2.316051908E-2,-9.424777818E-4
3.067581199E1,-6.056292448E-3,-1.083849464E-2,-3.438298590E-3
3.069581042E1,2.967059845E-4,-1.396263397E-4,-1.256637042E-3
3.071581042E1,-4.118977115E-3,1.867502346E-3,-4.136430100E-3
3.073581042E1,-9.302604944E-3,-8.639379404E-3,3.490658477E-3
3.075581042E1,-1.298524998E-2,-1.862266287E-2,1.169370604E-3
3.077581042E1,-8.098327555E-3,-1.340412907E-2,1.518436475E-3
3.079581042E1,-2.862340072E-3,-3.368485486E-3,4.363323096E-4
3.081581199E1,1.797689125E-3,9.756390937E-3,1.169370604E-3
3.083581042E1,1.029744279E-3,9.546951391E-3,4.014257342E-3
3.085581042E1,5.044001620E-3,8.970992640E-3,5.846852902E-3
3.087581042E1,7.853982039E-3,1.663298719E-2,9.599310579E-4
3.089581198E1,7.086036727E-3,1.907644793E-2,-4.590216093E-3
3.091581042E1,1.000073645E-2,1.623156108E-2,-4.398229532E-3
3.093581042E1,7.749261800E-3,2.033308521E-2,-4.817108624E-3
3.095581198E1,8.709193207E-3,1.939060725E-2,-4.747295752E-3
3.097581199E1,7.906341925E-3,1.591740362E-2,-1.710422686E-3
3.099580886E1,8.237954229E-3,1.317723561E-2,-5.759586347E-4
3.101581042E1,1.162389293E-2,8.150687441E-3,-1.256637042E-3
3.103581199E1,1.125737373E-2,4.921828397E-3,-2.583087189E-3
3.105581042E1,1.027998887E-2,4.118977115E-3,-3.071779385E-3
3.107581042E1,6.091198884E-3,5.305801053E-3,-2.740166849E-3
3.109581042E1,1.448623254E-3,-8.831365965E-3,-6.283185212E-4
3.111581042E1,-3.316125600E-3,-2.057743259E-2,5.218534265E-3
3.113581042E1,-6.544984877E-3,-1.937315427E-2,8.552113432E-4
3.115581042E1,-2.897246508E-3,-1.160643995E-2,-2.635447076E-3
3.117581199E1,-3.054326167E-3,-4.520402756E-3,-5.585053586E-4
3.119581042E1,-2.356194425E-3,-3.909537569E-3,-8.726646047E-5
3.121581042E1,-5.742133129E-3,-1.734857261E-2,-3.316125658E-4
3.123581042E1,-9.634217247E-3,-2.558652684E-2,5.410520826E-4
3.125581198E1,-6.597344764E-3,-7.836528122E-3,-6.632251316E-4
3.127581042E1,-1.221730490E-3,1.258382387E-2,2.181661548E-3
3.129581042E1,-2.443460980E-4,-2.740166849E-3,3.769911127E-3
3.131581199E1,-1.221730490E-4,1.047197584E-4,5.672320258E-3
3.133581042E1,3.647738136E-3,1.354375482E-2,1.500983140E-3
3.135581042E1,5.061454605E-3,2.220058814E-2,3.211405827E-3
3.137581042E1,2.216568217E-3,1.047197543E-2,7.103490178E-3
3.139581198E1,-1.029744279E-3,-4.363323096E-4,1.242674422E-2
3.141581042E1,3.141592606E-4,-5.201081280E-3,1.609193534E-2
3.143581042E1,1.047197584E-4,-3.735004691E-3,1.494001877E-2
3.145581198E1,2.373647876E-3,5.445427261E-3,7.382742595E-3
3.147581199E1,7.068583276E-3,-1.745329209E-4,3.490658477E-3
3.149580886E1,6.928957067E-3,3.333578818E-3,-3.455751808E-3
3.151581042E1,9.040805511E-3,-6.457718089E-3,-9.180432186E-3
3.153581199E1,3.752457909E-3,-1.445132587E-2,-6.789330859E-3
3.155581042E1,6.632251316E-4,-4.398229532E-3,-7.627088577E-3
3.157581042E1,1.466076588E-3,7.016223390E-3,-5.427973811E-3
3.159581042E1,-1.902408898E-3,-5.218534265E-3,1.029744279E-3
3.161581198E1,-7.068583276E-3,-2.106612362E-2,8.447393775E-3
3.163581042E1,-5.724680144E-3,-2.150245570E-2,1.302015595E-2
3.165581042E1,-2.129301662E-3,-9.791296907E-3,9.075712413E-3
3.167581199E1,3.438298590E-3,7.155850180E-4,-6.789330859E-3
3.169581042E1,6.632251316E-4,-3.054326167E-3,-1.692969352E-2
3.171581042E1,4.206243437E-3,-3.839724232E-4,-1.239183731E-2
3.173581042E1,8.621926419E-3,-3.490658419E-4,-1.343903481E-3
3.175581198E1,1.251401100E-2,9.721484035E-3,2.862340072E-3
3.177581042E1,5.009094719E-3,1.773254573E-2,3.106686054E-3
3.179581042E1,6.632251316E-4,1.117010694E-2,2.338741207E-3
3.181581199E1,5.759586347E-4,4.642575979E-3,5.166174378E-3
3.183581042E1,-1.745329246E-5,1.850049011E-3,7.260569837E-3
3.185581042E1,4.014257283E-4,-3.193952609E-3,7.819075137E-3
3.187581042E1,-2.792526793E-4,-6.632251316E-4,3.682644805E-3
3.189581198E1,5.567600485E-3,6.859143730E-3,3.612831468E-3
3.191581042E1,5.270894151E-3,6.632251199E-3,2.024581889E-3
3.193581042E1,9.599310579E-4,4.118977115E-3,2.967059845E-4
3.195581198E1,5.410520826E-4,6.876597181E-3,-7.330382941E-4
3.197581199E1,1.850049011E-3,3.455751808E-3,-4.485496320E-3
3.199580886E1,3.979350906E-3,-1.239183708E-3,-4.677482415E-3
3.201581042E1,1.815142459E-3,-1.094321441E-2,-7.382742595E-3
3.203581198E1,1.815142459E-3,-2.809980186E-3,-4.660028964E-3
3.205581042E1,4.904375412E-3,1.000073645E-2,-3.455751808E-3
3.207581042E1,3.735004691E-3,1.014036313E-2,-4.537856148E-4
3.209581042E1,9.948377265E-4,1.169370604E-3,-4.363323096E-4
3.211581042E1,-9.599310579E-4,-2.007128671E-3,-4.066617228E-3
3.213581042E1,7.504915702E-4,-2.251474652E-3,-7.243116386E-3
3.215581042E1,1.675516134E-3,3.019419499E-3,-6.946410518E-3
3.217581198E1,-1.919862116E-4,6.178465672E-3,-6.894050632E-3
3.219581042E1,-1.308996929E-3,7.504915702E-4,-5.061454605E-3
3.221581042E1,-1.396263367E-3,-1.186823938E-3,-3.944444004E-3
3.223581042E1,-5.410520826E-4,-6.684611086E-3,-4.223696887E-3
3.225581198E1,0.000000000E0,4.450589418E-3,-3.769911127E-3
3.227581042E1,-1.605702913E-3,3.926991019E-3,-6.544984877E-3
3.229581042E1,-4.101523664E-3,-2.844886621E-3,-3.089232836E-3
3.231581198E1,-6.283185212E-4,-1.247910410E-2,1.099557383E-3
3.233581042E1,-2.076941775E-3,8.726646047E-5,1.919862116E-4
3.235581042E1,3.490658419E-4,7.225662936E-3,-6.457717973E-4
3.237581042E1,-7.330382941E-4,2.548180753E-3,-2.111848444E-3
3.239581198E1,-4.153883550E-3,6.457717973E-4,-1.169370604E-3
3.241581042E1,-6.405358203E-3,-1.706931926E-2,-6.824237294E-3
3.243581042E1,-7.714355364E-3,-2.419026382E-2,-2.722713631E-3
3.245581042E1,8.726646192E-4,-1.029744279E-2,4.712388909E-4
3.247581198E1,3.316125658E-4,2.670353744E-3,3.996803891E-3
3.249580886E1,1.745329209E-4,4.468042869E-3,6.126105785E-3
3.251581042E1,-3.752457909E-3,1.361356815E-3,2.286381321E-3
3.253581198E1,-1.884955564E-3,1.902408898E-3,0.000000000E0
3.255581042E1,-2.199114766E-3,2.094394993E-3,1.343903481E-3
3.257581042E1,-3.211405827E-3,-2.391101094E-3,3.926991019E-3
3.259581042E1,-3.298672382E-3,5.061454722E-4,3.979350906E-3
3.261581198E1,4.014257283E-4,9.005898610E-3,4.276056774E-3
3.263581042E1,5.253441166E-3,1.122246683E-2,5.323254038E-3
3.265581042E1,6.614797749E-3,8.970992640E-3,3.490658477E-3
3.267581198E1,9.948377265E-4,5.532693584E-3,-8.028514567E-4
3.269581042E1,3.961897455E-3,1.078613475E-2,-4.537856148E-4
3.271581042E1,2.321287990E-3,1.054178830E-2,-1.588249579E-3
3.273581042E1,-1.291543595E-3,0.000000000E0,5.410520826E-4
3.275581198E1,-5.777040031E-3,4.520402756E-3,2.914699726E-3
3.277581042E1,-4.049163777E-3,6.510077976E-3,4.066617228E-3
3.279581042E1,-2.705260413E-3,-1.134464052E-3,-1.535889693E-3
3.281581198E1,-3.159045940E-3,-7.208209950E-3,-5.619960371E-3
3.283581042E1,-6.736970972E-3,-1.204277202E-2,-5.689773243E-3
3.285581042E1,-6.684611086E-3,-4.921828397E-3,-4.049163777E-3
3.287581042E1,-9.756390937E-3,-3.019419499E-3,-5.061454722E-4
3.289581198E1,-1.204277202E-2,-3.455751808E-3,-6.981316983E-5
3.291581042E1,-1.213003788E-2,-5.602506921E-3,1.553343027E-3
3.293581042E1,-1.197295822E-2,-5.410520826E-3,3.036872949E-3
3.295580886E1,-1.380555425E-2,-1.012290944E-3,-2.268928074E-4
3.297581198E1,-1.544616371E-2,2.792526793E-4,-2.862340072E-3
3.299580886E1,-1.019272301E-2,8.237954229E-3,-2.426007763E-3
3.301581042E1,-4.694935866E-3,8.691739291E-3,-3.124139272E-3
3.303581198E1,-3.804817796E-3,1.331686229E-2,-2.705260413E-3
3.305585261E1,-1.221730490E-4,1.631882787E-2,-7.853981806E-4
3.307581042E1,1.431170036E-3,2.178170905E-2,-1.396263397E-4
3.309581042E1,4.729842301E-3,9.861109778E-3,-1.570796303E-4
3.311581198E1,3.438298590E-3,6.702064537E-3,-4.537856148E-4
3.313581042E1,6.981316837E-4,2.151990868E-2,-5.532693584E-3
3.315581042E1,4.764748737E-3,1.806415804E-2,-1.200786512E-2
3.317581198E1,7.033676840E-3,7.592182141E-3,-1.300270297E-2
3.319581042E1,3.316125600E-3,2.967059612E-3,-6.597344764E-3
3.321581042E1,2.059488557E-3,-3.490658492E-5,-1.937315450E-3
3.323581042E1,-4.433136433E-3,1.466076588E-3,6.981316837E-4
3.325581198E1,-7.295476273E-3,1.246165112E-2,3.490658419E-4
3.327581042E1,-5.550147034E-3,1.857030392E-2,2.391101094E-3
3.329581042E1,-2.652900526E-3,1.048942842E-2,8.290314116E-3
3.331581198E1,-3.543018363E-3,1.157153305E-2,7.103490178E-3
3.333581198E1,-7.644542027E-3,1.651081443E-2,1.413716702E-3
3.335581042E1,-5.899212789E-3,2.499311417E-2,-4.118977115E-3
3.337580886E1,3.961897455E-3,3.045599535E-2,-4.415682983E-3
3.339581198E1,1.452113967E-2,3.302162886E-2,-5.742133129E-3
3.341581042E1,2.303834632E-2,3.724532574E-2,-1.797689125E-3
3.343581042E1,2.551671304E-2,4.159119725E-2,-1.012290944E-3
3.345581042E1,2.178170905E-2,5.604252219E-2,-3.560471581E-3
3.347581198E1,2.104867063E-2,7.569492608E-2,-1.919862116E-4
3.349580886E1,2.857103944E-2,7.862707973E-2,3.543018363E-3
3.351581042E1,3.897320107E-2,6.668902934E-2,9.075712296E-4
3.353581198E1,4.654793069E-2,6.524040550E-2,-4.537856148E-4
3.355581042E1,4.372049868E-2,5.030038953E-2,-2.635447076E-3
3.357581042E1,3.865904361E-2,3.719296679E-2,-4.886921961E-4
3.359581042E1,4.461061582E-2,1.569050923E-2,-7.714355364E-3
3.361581198E1,3.282964230E-2,-6.300638430E-3,-1.352630183E-2
3.363581042E1,1.516691130E-2,-3.494149074E-2,-1.186823845E-2
3.365581042E1,1.710422710E-2,-4.944517836E-2,-5.148721393E-3
3.367581198E1,2.715732343E-2,-2.874557301E-2,-4.537856148E-4
3.369581042E1,2.361430414E-2,-1.031489577E-2,3.490658419E-4
3.371581042E1,2.047271281E-2,2.268928074E-4,5.619960371E-3
3.373581042E1,3.263765574E-2,3.687880561E-2,9.861109778E-3
3.375581198E1,4.630358517E-2,8.756317198E-2,1.391027402E-2
3.377581042E1,5.124286562E-2,1.104618907E-1,1.378810126E-2
3.379581042E1,5.281366408E-2,1.345823407E-1,1.546361670E-2
3.381581198E1,5.475097895E-2,1.625250578E-1,2.213077433E-2
3.383581198E1,6.269222498E-2,1.752136052E-1,2.895501256E-2
3.385581042E1,5.815437064E-2,1.597325355E-1,1.638864167E-2
3.387581042E1,3.693116829E-2,1.358738840E-1,1.003564335E-2
3.389581198E1,4.029965401E-2,1.359960586E-1,2.122320421E-2
3.391581042E1,6.070255116E-2,1.192234382E-1,3.094468825E-2
3.393581042E1,7.267551124E-2,9.854128957E-2,3.115412779E-2
3.395581042E1,7.869689912E-2,1.151742786E-1,4.009021446E-2
3.397581198E1,8.513715863E-2,1.512153298E-1,3.054326214E-2
3.399580886E1,8.883725852E-2,2.137155682E-1,1.036725566E-2
3.401581042E1,9.241518378E-2,2.343628109E-1,-9.250245057E-4
3.403581198E1,1.229759008E-1,1.799958050E-1,2.572615258E-2
3.405581042E1,1.233773232E-1,1.785995364E-1,5.658357590E-2
3.407581042E1,9.316567332E-2,1.861742735E-1,3.979350626E-2
3.409581042E1,6.684610993E-2,1.668883860E-1,1.466076542E-2
3.411581198E1,1.361356769E-2,8.655087650E-2,1.699950732E-2
3.413581042E1,-1.057669520E-2,-3.686135262E-2,3.834488243E-2
3.415581042E1,3.351032268E-3,-9.560913593E-2,2.604031190E-2
3.417581198E1,2.059488557E-3,-1.144936010E-1,2.981022373E-2
3.419581042E1,-1.394518092E-2,-1.334304214E-1,5.658357590E-2
3.421581042E1,-2.413790300E-2,-1.130624264E-1,4.593706504E-2
3.423581042E1,-2.645919099E-2,-5.969025940E-2,4.066617042E-2
3.425581198E1,-2.611012571E-2,-4.098033160E-2,4.968952388E-2
3.427581042E1,-4.904375412E-3,-3.523819894E-2,7.766715437E-2
3.429581042E1,1.506219152E-2,-5.834635720E-2,1.097812131E-1
3.431581198E1,2.145009674E-2,-9.623745829E-2,9.283406287E-2
3.433581198E1,1.384046115E-2,-1.203579083E-1,5.420992523E-2
3.435581042E1,2.809980186E-3,-1.004960611E-1,4.101523757E-2
3.437581042E1,6.108652451E-4,-8.285077661E-2,6.482152641E-2
3.439581198E1,2.300344035E-2,-5.756095797E-2,8.693484962E-2
3.441581042E1,3.733259439E-2,-6.476917118E-2,7.059856504E-2
3.443581042E1,1.748819835E-2,-6.380923837E-2,4.759512842E-2
3.445581042E1,-4.363323096E-4,-2.722713538E-2,5.696754530E-2
3.447581198E1,-7.260569837E-3,-2.113593742E-2,5.946336687E-2
3.449580886E1,5.585053470E-3,3.298672289E-2,5.415756628E-2
3.451581042E1,7.853982039E-3,6.705555320E-2,4.246386141E-2
3.453581198E1,-1.911135577E-2,1.031140536E-1,1.509709843E-2
3.455581042E1,-3.810053691E-2,1.045277715E-1,-2.572615258E-2
3.457581042E1,-1.082104165E-3,1.247037724E-1,-3.796090931E-2
3.459581042E1,1.921607554E-2,1.185951233E-1,-3.200933710E-2
3.461581198E1,1.237438433E-2,1.259255111E-1,-3.581415489E-2
3.463581042E1,3.211405827E-3,1.213178337E-1,-4.742059484E-2
3.465581042E1,-6.178465672E-3,1.125213802E-1,-6.007423252E-2
3.467581198E1,-2.611012571E-2,5.504768342E-2,-6.768386811E-2
3.469581042E1,-4.536110535E-2,1.211258490E-2,-7.965682447E-2
3.471581042E1,-5.361651629E-2,1.221730490E-3,-8.716174215E-2
3.473581042E1,-5.850343779E-2,-2.211332135E-2,-8.894197643E-2
3.475581198E1,-6.475171447E-2,-5.494296551E-2,-8.609709144E-2
3.477581042E1,-7.101744413E-2,-8.464846760E-2,-9.234537184E-2
3.479581042E1,-7.428121567E-2,-1.079835221E-1,-9.670869261E-2
3.481581198E1,-8.154178411E-2,-1.376017630E-1,-9.707520902E-2
3.483581198E1,-7.780677825E-2,-1.288402081E-1,-8.923868090E-2
3.485581042E1,-7.559020817E-2,-1.282293350E-1,-6.593853980E-2
3.487581042E1,-7.963937521E-2,-1.166229025E-1,-5.131268129E-2
3.489581198E1,-7.740534842E-2,-4.342379048E-2,-3.174753860E-2
3.491581042E1,-7.780677825E-2,-1.595230959E-2,-2.862340026E-2
3.493581042E1,-8.073893189E-2,-6.181956083E-2,-2.747148275E-2
3.495580886E1,-6.890559942E-2,-1.073202938E-1,-3.338814899E-2
3.497581198E1,-5.721189082E-2,-1.044055969E-1,-2.954842336E-2
3.499580886E1,-3.935717419E-2,-7.229153812E-2,-2.834414691E-2
3.501581042E1,-2.466150187E-2,-2.455678210E-2,-3.926990926E-2
3.503581198E1,-1.886700839E-2,7.312929723E-3,-4.715879634E-2
3.505581042E1,-2.378883772E-2,-6.702064537E-3,-3.888593614E-2
3.507581042E1,-3.097959422E-2,-1.954768784E-2,-2.106612362E-2
3.509581042E1,-2.069960535E-2,-9.948376566E-3,-2.176425606E-2
3.511581198E1,-2.232276089E-2,-7.819075137E-3,-2.994984947E-2
3.513581042E1,-3.619812801E-2,4.043927789E-2,-1.715658605E-2
3.515581042E1,-2.485348843E-2,8.365362883E-2,-3.612831468E-3
3.517581198E1,-3.141592722E-3,7.365289330E-2,-6.457718089E-3
3.519581042E1,7.016223390E-3,3.878121451E-2,3.462733328E-2
3.521581042E1,-1.867502346E-3,2.708750963E-2,6.892304868E-2
3.523581042E1,6.981316837E-4,1.925098151E-2,3.494149074E-2
3.525581198E1,1.904154196E-2,6.480407715E-2,-1.788962446E-2
3.527581042E1,2.497566119E-2,1.403942853E-1,-6.461209059E-2
3.529581042E1,-3.209660575E-2,4.075343907E-2,-4.211479425E-2
3.531581198E1,-1.708677411E-2,2.394591644E-2,-2.183406800E-2
3.533581198E1,-1.213003788E-2,8.326965570E-2,-3.659955412E-2
3.535581042E1,-5.434955284E-2,6.538003683E-2,-4.619886354E-2
3.537581042E1,-5.852089077E-2,3.920009360E-2,-3.073524870E-2
3.539581198E1,-2.385865152E-2,2.057743259E-2,-2.541199327E-2
3.541581042E1,-2.321287990E-2,-2.251474652E-3,-3.305653483E-2
3.543581042E1,-6.576400250E-2,-1.137954649E-2,-4.132939503E-2
3.545581042E1,-1.099731922E-1,-2.174680308E-2,-2.644173801E-2
3.547581198E1,-1.103746220E-1,-7.504915819E-3,4.886921961E-3
3.549580886E1,-9.435249865E-2,-1.343903481E-3,2.745402977E-2
3.551581042E1,-8.829620481E-2,-3.750712425E-2,3.981095925E-2
3.553581198E1,-1.000771821E-1,-7.276277989E-2,3.406882659E-2
3.555581042E1,-1.107236892E-1,-9.564404190E-2,1.588249579E-3
3.557581042E1,-1.041263416E-1,-9.496336430E-2,-2.809980139E-2
3.559581042E1,-9.405579418E-2,-8.998917788E-2,-3.106686100E-2
3.561581198E1,-9.983283281E-2,-8.855800331E-2,-2.326523885E-2
3.563581042E1,-1.103746220E-1,-1.079311594E-1,-2.694788389E-2
3.565581042E1,-1.193630695E-1,-1.589122266E-1,-4.518657550E-2
3.567581198E1,-1.306378990E-1,-2.018298805E-1,-6.035348400E-2
3.569581042E1,-1.335700452E-1,-2.347816974E-1,-6.555456668E-2
3.571581042E1,-1.193281636E-1,-2.636668980E-1,-5.900958180E-2
3.573581042E1,-1.061683744E-1,-2.569997311E-1,-5.122541264E-2
3.575581198E1,-9.737192094E-2,-2.352180183E-1,-4.591961205E-2
3.577581042E1,-8.475318551E-2,-2.008699477E-1,-4.461061582E-2
3.579581042E1,-7.176794112E-2,-1.697507203E-1,-4.963716492E-2
3.581581198E1,-5.738642439E-2,-1.361531317E-1,-4.792674258E-2
3.583581198E1,-4.792674258E-2,-1.141968891E-1,-3.466223925E-2
3.585581042E1,-2.958333120E-2,-9.580112249E-2,-1.336922217E-2
3.587581042E1,-3.019419499E-3,-8.799950033E-2,3.682644805E-3
3.589581198E1,1.284562331E-2,-7.180284709E-2,6.562437862E-3
3.591581042E1,1.399754081E-2,-2.518510073E-2,-7.714355364E-3
3.593581042E1,2.082177810E-2,1.500983164E-2,-2.206096239E-2
3.595581042E1,4.399975017E-2,4.539601505E-2,-1.509709843E-2
3.597581198E1,6.838200241E-2,7.087782025E-2,-1.726130582E-2
3.599580886E1,8.805186301E-2,1.061509252E-1,-3.358013555E-2
3.601581042E1,9.929177910E-2,1.236914843E-1,-5.534439161E-2
3.603581198E1,9.573131055E-2,1.371654272E-1,-6.414084882E-2
3.605581042E1,8.223991096E-2,1.364498436E-1,-5.658357590E-2
3.607581042E1,7.026695460E-2,1.114392728E-1,-3.820525855E-2
3.609581042E1,5.822418258E-2,8.683013171E-2,-1.635373570E-2
3.611581198E1,2.096140385E-2,5.592034757E-2,2.303834539E-3
3.613581042E1,-1.939060725E-2,1.532399096E-2,4.502949305E-3
3.615581042E1,-4.230678082E-2,-1.841322333E-2,2.094394993E-3
3.617581198E1,-4.476769641E-2,-4.836307466E-2,8.150687441E-3
3.619581042E1,-4.045673087E-2,-9.557422996E-2,2.490584925E-2
3.621581042E1,-4.111995548E-2,-1.072330326E-1,3.436553106E-2
3.623581042E1,-5.258677155E-2,-9.876818210E-2,4.733332992E-2
3.625581198E1,-5.152212083E-2,-6.928957254E-2,7.002261281E-2
3.627581042E1,-3.989822790E-2,-5.106833205E-2,7.677703351E-2
3.629581042E1,-3.260274976E-2,-2.892010473E-2,7.840018719E-2
3.631581198E1,-4.312708601E-2,2.321287990E-3,8.274605870E-2
3.633581198E1,-6.443755329E-2,3.892084118E-3,6.222098693E-2
3.635581042E1,-5.520476401E-2,4.084070213E-3,4.277801886E-2
3.637581042E1,-2.172934823E-2,3.024655581E-2,4.260348529E-2
3.639581198E1,-3.001966281E-3,1.747074537E-2,4.064871743E-2
3.641581042E1,-8.237954229E-3,-4.241149873E-3,4.293509945E-2
3.643581042E1,-3.270747140E-2,-1.396263367E-3,4.831071198E-2
3.645580886E1,-5.553637818E-2,-1.373574138E-2,4.298745841E-2
3.647581198E1,-4.649557173E-2,-5.333726108E-2,2.583087236E-2
3.649580886E1,-3.686135262E-2,-9.375908971E-2,-4.537856148E-4
3.651581042E1,-5.342452973E-2,-1.074075624E-1,-8.796459064E-3
3.653581198E1,-4.804891348E-2,-1.118406951E-1,8.970992640E-3
3.655581042E1,-2.424262278E-2,-9.121090919E-2,1.279326342E-2
3.657581042E1,-1.455604564E-2,-8.812167495E-2,5.148721393E-3
3.659581042E1,-3.192207217E-2,-6.600835174E-2,-6.527531426E-3
3.661581198E1,-4.024729133E-2,-1.190314535E-2,-3.351031989E-2
3.663581042E1,-3.235840425E-2,-1.303760987E-2,-6.551966071E-2
3.665581042E1,-4.146902263E-2,1.452113967E-2,-4.380776361E-2
3.667581198E1,-5.949827284E-2,8.047713339E-2,6.457717973E-4
3.669581042E1,-5.230751634E-2,8.340928704E-2,4.981169850E-2
3.671581042E1,-6.894050632E-3,1.174257547E-1,7.435102761E-2
3.673581042E1,2.024581889E-3,1.469741762E-1,9.674359858E-2
3.675581198E1,-5.759586394E-2,2.527236752E-2,9.714502841E-2
3.677581042E1,-1.861917228E-1,-1.657888293E-1,9.070476145E-2
3.679581042E1,-2.442762852E-1,-2.071705759E-1,1.176526472E-1
3.681581198E1,-1.761386245E-1,-1.388933063E-1,1.685289890E-1
3.683581198E1,-2.356194519E-2,3.525565146E-3,1.562942266E-1
3.685581042E1,1.445132587E-2,7.426375896E-2,9.023352526E-3
3.687581042E1,-2.157226950E-2,1.023984700E-1,-1.335002333E-1
3.689581198E1,3.504621238E-2,2.696708143E-1,-1.754404902E-1
3.691581042E1,1.653001308E-1,4.379031062E-1,-1.743234843E-1
3.693581042E1,2.533694506E-1,4.054050744E-1,-1.610938907E-1
3.695581042E1,2.165430039E-1,2.084272206E-1,-1.228188202E-1
3.697581198E1,4.930555075E-2,-1.202531811E-2,-9.974556416E-2
3.699580886E1,-1.080533341E-1,-2.696184516E-1,-8.625417203E-2
3.701581042E1,-1.955641359E-1,-5.067389011E-1,-1.781981252E-2
3.703581198E1,-2.461786866E-1,-5.797809362E-1,1.331337094E-1
3.705581042E1,-2.304009199E-1,-4.032059610E-1,2.837032676E-1
3.707581042E1,-1.381253600E-1,-2.094046026E-1,3.238283992E-1
3.709581042E1,1.722639985E-2,-1.855110526E-1,2.826735377E-1
3.711581198E1,1.461015046E-1,-7.354817539E-2,1.594707370E-1
3.713581042E1,1.040739864E-1,1.392598152E-1,-1.010196581E-1
3.715581042E1,-1.033758521E-1,2.831796706E-1,-2.811201811E-1
3.717581198E1,-1.669756472E-1,3.089581728E-1,-3.170739710E-1
3.719581042E1,-6.852162629E-2,2.901784480E-1,-2.818357646E-1
3.721581042E1,2.855358645E-2,1.851619780E-1,-2.270673364E-1
3.723581042E1,9.536478668E-2,1.309345961E-1,-1.528384835E-1
3.725581198E1,1.826487035E-1,1.954245120E-1,-8.166395873E-2
3.727581042E1,2.837556303E-1,2.932153046E-1,-8.070402592E-2
3.729581042E1,3.689102530E-1,4.601735175E-1,-1.088561863E-1
3.731581198E1,3.801676035E-1,6.479535103E-1,-1.262047589E-1
3.733581198E1,3.244741559E-1,7.238752842E-1,-1.189965457E-1
3.735581042E1,2.472433448E-1,7.039785385E-1,-9.505063295E-2
3.737581042E1,2.190911770E-1,5.823640227E-1,-7.805112749E-2
3.739581198E1,2.961649299E-1,5.658531785E-1,-8.091346174E-2
3.741581042E1,3.693291247E-1,5.412266254E-1,-1.459095180E-1
3.743581042E1,3.844611347E-1,5.343674421E-1,-2.129650712E-1
3.745580886E1,3.678455949E-1,5.416803956E-1,-2.431243658E-1
3.747581198E1,2.863736153E-1,5.345768929E-1,-2.083923072E-1
3.749580886E1,1.663298756E-1,4.588296115E-1,-1.186474785E-1
3.751581042E1,6.176720187E-2,2.953969836E-1,-3.947934881E-2
3.753581198E1,-1.872738265E-2,1.038296372E-1,3.403391922E-3
3.755581042E1,-6.229080260E-2,7.539822254E-3,2.246238664E-2
3.757581042E1,-2.876302600E-2,2.628465928E-2,1.850049011E-3
3.759581042E1,4.403465614E-2,3.443534672E-2,-3.602359444E-2
3.761581198E1,8.442157507E-2,3.047344834E-2,-5.073672161E-2
3.763581042E1,6.752678752E-2,7.876671106E-2,-4.445353523E-2
3.765581042E1,3.317870945E-2,1.008800268E-1,-5.229006335E-2
3.767581198E1,1.523672417E-2,7.185520232E-2,-6.215117499E-2
3.769581042E1,4.590216093E-3,-1.548107062E-2,-8.501498401E-2
3.771581042E1,-1.865756884E-2,-1.247037724E-1,-1.075122803E-1
3.773581042E1,-4.345869645E-2,-1.984788477E-1,-1.162738353E-1
3.775581198E1,-5.050982907E-2,-2.312386781E-1,-8.417722583E-2
3.777581042E1,-2.829178795E-2,-2.458994389E-1,-4.256857932E-2
3.779581042E1,3.211405827E-3,-2.275560200E-1,-2.251474746E-2
3.781581198E1,1.073377486E-2,-1.901187152E-1,-1.190314535E-2
3.783581198E1,1.022762898E-2,-1.200786531E-1,-9.686577134E-3
3.785581042E1,4.729842395E-2,-2.268928103E-2,-1.698205434E-2
3.787581042E1,7.806857675E-2,5.462880433E-2,-3.043854237E-2
3.789581198E1,5.482079089E-2,6.462953985E-2,-3.078760765E-2
3.791581042E1,1.757546514E-2,7.838273793E-2,-2.942625061E-2
3.793581042E1,1.914626174E-2,1.149299294E-1,-2.754129469E-2
3.795581042E1,2.647664398E-2,1.320690662E-1,-3.298672289E-2
3.797581198E1,4.436627030E-2,1.395739764E-1,-3.162536770E-2
3.799580886E1,6.476917118E-2,1.348441392E-1,-3.255039081E-2
3.801581042E1,6.921976060E-2,1.084373072E-1,-3.893829510E-2
3.803581198E1,5.574581772E-2,6.466444582E-2,-5.117305368E-2
3.805581042E1,3.682644665E-2,1.282817032E-2,-5.550146848E-2
3.807581042E1,1.171115879E-2,-2.160717547E-2,-4.790928960E-2
3.809581042E1,-7.522369269E-3,-2.488839440E-2,-2.373647690E-2
3.811581042E1,-1.839577034E-2,-2.309070528E-2,-4.660028964E-3
3.813581042E1,-2.684316412E-2,-4.609414563E-2,9.791296907E-3
3.815581042E1,-2.556907386E-2,-6.269222498E-2,1.293289009E-2
3.817581198E1,-3.042108938E-2,-7.222172618E-2,-1.204277156E-3
3.819581042E1,-3.658210114E-2,-7.492698729E-2,-1.263618376E-2
3.821581042E1,-3.904301673E-2,-8.403760195E-2,-1.366592757E-2
3.823581042E1,-2.825688012E-2,-1.096415818E-1,-2.181661502E-2
3.825581198E1,-1.514945831E-2,-1.280198991E-1,-2.551671304E-2
3.827581042E1,-7.853982039E-3,-1.061334684E-1,-3.185226023E-2
3.829581042E1,-1.675516134E-3,-6.967354566E-2,-3.295181692E-2
3.831580886E1,8.552113432E-4,-2.422516979E-2,-2.933898382E-2
3.833581198E1,8.621926419E-3,2.827433404E-3,-1.012290921E-2
3.835581042E1,2.085668407E-2,1.258382387E-2,8.325220086E-3
3.837581042E1,2.816961333E-2,3.879866749E-2,2.570869960E-2
3.839581198E1,2.827433310E-2,6.094689667E-2,2.790781483E-2
3.841581042E1,3.392919898E-2,6.990043819E-2,2.394591644E-2
3.843581042E1,3.363249451E-2,6.654940546E-2,2.462659590E-2
3.845580886E1,2.740166895E-2,6.038839370E-2,2.705260366E-2
3.847581198E1,1.891936921E-2,6.223843992E-2,2.617993951E-2
3.849580886E1,1.432915311E-2,5.056218803E-2,1.970476657E-2
3.851581042E1,9.948376566E-3,2.754129469E-2,1.122246683E-2
3.853581198E1,1.055924222E-2,2.453932911E-2,8.045967668E-3
3.855581042E1,1.001818944E-2,1.879719645E-2,7.592182141E-3
3.857581042E1,1.186823845E-2,1.891936921E-2,8.482299745E-3
3.859580886E1,2.460914198E-3,7.539822254E-3,6.649704650E-3
3.861581198E1,-4.188789986E-3,-1.001818944E-2,7.365289610E-3
3.863581042E1,-5.654866807E-3,-1.001818944E-2,8.464846760E-3
3.865581042E1,-1.431170036E-3,-6.265731994E-3,-2.303834539E-3
3.867581198E1,4.991641734E-3,-5.637413356E-3,-1.989675453E-3
3.869581199E1,8.621926419E-3,9.948377265E-4,-2.932153177E-3
3.871581042E1,8.115780540E-3,1.778490469E-2,-1.169370604E-3
3.873581042E1,6.230825558E-3,2.071705833E-2,6.544984877E-3
3.875581198E1,1.745329238E-3,1.155408006E-2,9.808750823E-3
3.877581042E1,-1.745329238E-3,7.853982039E-3,7.574729156E-3
3.879581042E1,-4.363323096E-3,8.255407214E-3,1.099557383E-3
3.881580886E1,-1.012290921E-2,-1.361356815E-3,-4.363323096E-4
3.883581198E1,-1.008800324E-2,-1.385791413E-2,-3.490658492E-5
3.885581042E1,-2.059488557E-3,-1.623156108E-2,1.745329209E-4
3.887581042E1,-1.972222002E-3,-1.834340952E-2,-1.762782573E-3
3.889581198E1,-5.515240598E-3,-2.551671304E-2,-3.577925032E-3
3.891581042E1,-1.155408006E-2,-2.898991853E-2,-2.617993741E-4
3.893581042E1,-1.521927118E-2,-2.143264376E-2,-1.675516134E-3
3.895581042E1,-1.607448235E-2,-2.466150187E-2,-6.457717973E-4
3.897581198E1,-1.801179722E-2,-3.167772666E-2,-1.291543595E-3
3.899580886E1,-1.157153305E-2,-2.672099136E-2,-1.064650831E-3
3.901581042E1,-2.513274085E-3,-1.556833647E-2,-6.981316954E-3
3.903581198E1,-5.585053470E-3,-9.058258496E-3,-1.314232964E-2
3.905581042E1,-1.507964451E-2,-1.204277202E-2,-1.548107062E-2
3.907581042E1,-1.555088349E-2,-1.242674422E-2,-1.418952644E-2
3.909581042E1,-1.520181727E-2,-1.521927118E-2,-1.083849464E-2
3.911581198E1,-1.527163107E-2,-2.368411794E-2,-4.939281847E-3
3.913581042E1,-1.199041214E-2,-2.843141370E-2,-6.684611086E-3
3.915581042E1,-1.071632188E-2,-4.410447180E-2,-1.157153305E-2
3.917581198E1,-7.853982039E-3,-4.796164855E-2,-1.500983164E-2
3.919581199E1,-9.913469665E-3,-4.808381945E-2,-2.022836544E-2
3.921581042E1,-1.172861271E-2,-4.670501128E-2,-2.696533687E-2
3.923581042E1,-1.583013684E-2,-4.687954485E-2,-2.768092230E-2
3.925581198E1,-1.261873078E-2,-3.387684003E-2,-2.789036185E-2
3.927581042E1,-9.826203808E-3,-2.460914291E-2,-2.103121765E-2
3.929581042E1,-8.691739291E-3,-3.467969224E-2,-1.345648803E-2
3.931581042E1,-1.302015595E-2,-3.377212211E-2,-8.464846760E-3
3.933581198E1,-1.385791413E-2,-2.787290886E-2,-8.168140426E-3
3.935581042E1,-1.434660610E-2,-2.965314314E-2,-9.285151958E-3
3.937581042E1,-1.277581044E-2,-3.724532574E-2,-1.226966456E-2
3.939581198E1,-1.096066739E-2,-3.288200125E-2,-9.075712413E-3
3.941581042E1,-6.544984877E-3,-2.439970337E-2,-2.827433404E-3
3.943581042E1,-8.988445625E-3,-2.624975145E-2,2.967059845E-4
3.945581042E1,-1.141445339E-2,-2.637192421E-2,3.769911127E-3
3.947581042E1,-1.462585945E-2,-3.059562109E-2,1.413716702E-3
3.949580886E1,-1.167625282E-2,-2.570869960E-2,-8.901178953E-4
3.951581042E1,-6.248278543E-3,-1.609193534E-2,-2.914699726E-3
3.953581198E1,-5.759586347E-4,-1.462585945E-2,-5.707226694E-3
