"Time (s)","Acceleration x (m/s^2)","Acceleration y (m/s^2)","Acceleration z (m/s^2)"
1.392217700E-2,3.410588205E-1,2.315078020E0,8.730561256E0
3.391436500E-2,1.389498860E-1,2.382795572E0,9.079855919E0
5.391592700E-2,2.204580903E-1,2.321743488E0,9.336332321E0
7.391592700E-2,2.928587496E-1,2.313497782E0,9.518331528E0
9.391436500E-2,3.827849627E-1,2.328169584E0,9.349175453E0
1.139206150E-1,4.075793028E-1,2.319990873E0,9.006863594E0
1.339159270E-1,2.932322323E-1,2.335093498E0,8.890235901E0
1.539159270E-1,2.620022595E-1,2.349966288E0,9.015951157E0
1.739143650E-1,3.536618948E-1,2.327173471E0,9.197555542E0
1.939159270E-1,3.648380041E-1,2.313133955E0,9.336715698E0
2.139159270E-1,3.778912127E-1,2.346432447E0,9.212189674E0
2.339143650E-1,3.646273315E-1,2.323381186E0,9.107552528E0
2.539159270E-1,3.451576829E-1,2.283761978E0,9.111134529E0
2.739143650E-1,3.168773651E-1,2.270689487E0,9.124388695E0
2.939143650E-1,3.191470802E-1,2.317041159E0,9.194528580E0
3.139206150E-1,2.861645520E-1,2.380142927E0,9.169256210E0
3.339159270E-1,2.897558510E-1,2.411660194E0,9.103472710E0
3.539159270E-1,3.210337162E-1,2.373908281E0,9.094470978E0
3.739143650E-1,3.842501938E-1,2.319215298E0,9.113499641E0
3.939143650E-1,3.342592716E-1,2.291624546E0,9.215617180E0
4.139206150E-1,2.981259823E-1,2.295292377E0,9.235632896E0
4.339143650E-1,2.442085594E-1,2.341366291E0,9.193848610E0
4.539143650E-1,2.790202498E-1,2.335179806E0,9.100495338E0
4.739174900E-1,3.317405879E-1,2.350119591E0,9.067263603E0
4.939159270E-1,3.844321668E-1,2.320776224E0,9.116909027E0
5.139159270E-1,3.848727047E-1,2.294028282E0,9.172971725E0
5.339143650E-1,3.765313029E-1,2.302743196E0,9.203588486E0
5.539159270E-1,3.549355865E-1,2.318008423E0,9.173824310E0
5.739174900E-1,3.190034330E-1,2.328418493E0,9.160924911E0
5.939143650E-1,3.043700755E-1,2.338866711E0,9.147000313E0
6.139174900E-1,2.873712182E-1,2.342084646E0,9.138860703E0
6.339143650E-1,3.197408319E-1,2.339738369E0,9.136627197E0
6.539143650E-1,3.253720105E-1,2.315365314E0,9.139903069E0
6.739143650E-1,3.001945615E-1,2.337200403E0,9.166526794E0
6.939159270E-1,3.411066830E-1,2.315221786E0,9.163778305E0
7.139159270E-1,3.329568207E-1,2.349506617E0,9.137892723E0
7.339143650E-1,3.027707338E-1,2.330697775E0,9.137996674E0
7.539159270E-1,3.283312321E-1,2.330774307E0,9.138744354E0
7.739174900E-1,3.362416625E-1,2.340131044E0,9.112044334E0
7.939143650E-1,3.289441466E-1,2.370029688E0,9.175778389E0
8.139159270E-1,3.434721529E-1,2.382441282E0,9.196205139E0
8.339159270E-1,3.269042969E-1,2.355061293E0,9.263424873E0
8.539143650E-1,2.370642722E-1,2.320134640E0,9.329102516E0
8.739143650E-1,2.715503573E-1,2.305874825E0,9.148311615E0
8.939143650E-1,5.080591440E-1,2.299486876E0,8.952782631E0
9.139174900E-1,6.947110891E-1,2.315585613E0,8.863908768E0
9.339143650E-1,5.561634302E-1,2.306640863E0,8.537205696E0
9.539159270E-1,5.437327623E-1,2.307579279E0,9.333498001E0
9.739159270E-1,3.629513979E-1,2.201190710E0,9.632006645E0
9.939143650E-1,3.209092021E-1,2.276052475E0,9.552883148E0
1.013915927E0,1.565233171E-1,2.398290873E0,9.332828522E0
1.033914365E0,-6.780379266E-2,2.472176075E0,8.831749916E0
1.053915927E0,-7.365521789E-2,2.484386444E0,8.886712074E0
1.073915927E0,1.685230583E-1,2.416151524E0,9.132988930E0
1.093914365E0,3.480690420E-1,2.391874552E0,9.238850594E0
1.113917490E0,4.418259561E-1,2.304629803E0,9.300544739E0
1.133914365E0,5.334855914E-1,2.238358259E0,9.217350960E0
1.153914365E0,5.643132925E-1,2.158813238E0,9.089549065E0
1.173914365E0,5.517293811E-1,2.175151348E0,9.068297386E0
1.193915927E0,4.562582076E-1,2.275525808E0,9.127558708E0
1.213915927E0,3.115526736E-1,2.382115602E0,9.193906784E0
1.233914365E0,2.008256316E-1,2.404151917E0,9.205255508E0
1.253915927E0,2.418622524E-1,2.367827177E0,9.173756599E0
1.273915927E0,3.961828947E-1,2.350014210E0,9.112647057E0
1.293914365E0,4.430039227E-1,2.359658003E0,9.038973808E0
1.313915927E0,4.546014369E-1,2.320613384E0,9.090572357E0
1.333915927E0,3.410588205E-1,2.280860186E0,9.217848778E0
1.353914365E0,3.007691801E-1,2.260815859E0,9.322906494E0
1.373914365E0,3.558932841E-1,2.223102331E0,9.221698761E0
1.393914365E0,4.628374875E-1,2.214033127E0,9.092689514E0
1.413917490E0,5.466153622E-1,2.220459223E0,9.029874802E0
1.433914365E0,6.413012743E-1,2.255156040E0,9.072960854E0
1.453914365E0,6.605602503E-1,2.288933277E0,9.172933578E0
1.473917490E0,6.159322858E-1,2.279653311E0,9.204853058E0
1.493914365E0,5.136902928E-1,2.291356325E0,9.194768906E0
1.513915927E0,3.556251228E-1,2.353710890E0,9.163309097E0
1.533914365E0,2.570606470E-1,2.393818617E0,9.106498718E0
1.553915927E0,2.810505331E-1,2.314120293E0,9.072396278E0
1.573914365E0,3.520433903E-1,2.241212130E0,9.100676537E0
1.593914365E0,4.107587934E-1,2.211131334E0,9.201003075E0
1.613917490E0,4.356680810E-1,2.222403288E0,9.256921768E0
1.633914365E0,4.248558581E-1,2.222834110E0,9.189530373E0
1.653914365E0,3.798927665E-1,2.267002344E0,9.100015640E0
1.673914365E0,3.434242904E-1,2.270335197E0,9.104095459E0
1.693915927E0,4.120037854E-1,2.293683529E0,9.150965691E0
1.713915927E0,4.598303735E-1,2.341193914E0,9.180241585E0
1.733914365E0,4.838106930E-1,2.347303867E0,9.192893028E0
1.753915927E0,4.462121427E-1,2.324405909E0,9.166756630E0
1.773915927E0,4.391827583E-1,2.286146402E0,9.154479027E0
1.793914365E0,4.870380759E-1,2.215967655E0,9.127070427E0
1.813915927E0,4.837436378E-1,2.173915863E0,9.142163277E0
1.833915927E0,4.283035100E-1,2.234220982E0,9.171640396E0
1.853914365E0,4.000519216E-1,2.266284227E0,9.165962219E0
1.873914365E0,4.249324799E-1,2.272805929E0,9.142335892E0
1.893914365E0,4.243865907E-1,2.270957708E0,9.143694878E0
1.913917490E0,4.315596223E-1,2.262079954E0,9.175414085E0
1.933914365E0,3.818559945E-1,2.254600525E0,9.203168869E0
1.953915927E0,3.826700449E-1,2.208401918E0,9.177799225E0
1.973915927E0,4.246930480E-1,2.176271677E0,9.146300316E0
1.993914365E0,4.992580712E-1,2.177248716E0,9.127713203E0
2.013915927E0,5.304305553E-1,2.220554829E0,9.168327332E0
2.033914365E0,5.606070757E-1,2.247810602E0,9.222638130E0
2.053915927E0,5.761598349E-1,2.246144056E0,9.215761185E0
2.073914365E0,5.852673650E-1,2.186710596E0,9.174993515E0
2.093914365E0,5.266381502E-1,2.154235601E0,9.097860336E0
2.113917490E0,4.368843436E-1,2.199639320E0,9.081091881E0
2.133914365E0,3.301699758E-1,2.249869585E0,9.070518494E0
2.153914365E0,2.813282609E-1,2.287659645E0,9.135947227E0
2.173914365E0,2.670205235E-1,2.281291008E0,9.209468842E0
2.193915927E0,3.510282636E-1,2.258555651E0,9.209297180E0
2.213915927E0,5.083464384E-1,2.205423594E0,9.208177567E0
2.233914365E0,6.476793885E-1,2.169165850E0,9.147774696E0
2.253915927E0,7.236426473E-1,2.129575253E0,9.127577782E0
2.273917490E0,6.477081180E-1,2.134574413E0,9.155685425E0
2.293914365E0,4.955518544E-1,2.193021536E0,9.147977829E0
2.313915927E0,3.739551306E-1,2.226789474E0,9.135717392E0
2.333915927E0,2.300636172E-1,2.293654680E0,9.143782616E0
2.353914365E0,1.938345581E-1,2.325037956E0,9.198397636E0
2.373914365E0,2.477519810E-1,2.286979675E0,9.245919228E0
2.393914365E0,3.747212887E-1,2.226214886E0,9.171373367E0
2.413917490E0,4.950442910E-1,2.187649012E0,9.148982048E0
2.433914365E0,5.580884218E-1,2.169070005E0,9.142325401E0
2.453915927E0,5.639110804E-1,2.170563936E0,9.142690659E0
2.473917490E0,5.158833861E-1,2.197455645E0,9.161871910E0
2.493914365E0,4.775091410E-1,2.188587666E0,9.180020332E0
2.513915927E0,4.619085193E-1,2.154829264E0,9.165348053E0
2.533914365E0,4.547354877E-1,2.173302889E0,9.164697647E0
2.553915927E0,4.316458106E-1,2.157664061E0,9.141406059E0
2.573915927E0,4.190810621E-1,2.174998045E0,9.137537003E0
2.593914365E0,4.494107962E-1,2.227852583E0,9.120576859E0
2.613917490E0,5.173773766E-1,2.252493620E0,9.172033310E0
2.633914365E0,5.539608002E-1,2.206381321E0,9.191148758E0
2.653914365E0,5.334089398E-1,2.192035198E0,9.187624931E0
2.673914365E0,4.240610003E-1,2.232889891E0,9.180422783E0
2.693915927E0,3.260232210E-1,2.292754412E0,9.155561447E0
2.713915927E0,2.367769629E-1,2.293003559E0,9.129598618E0
2.733914365E0,3.115526736E-1,2.272940159E0,9.124955177E0
2.753915927E0,4.035666287E-1,2.215661287E0,9.153291702E0
2.773915927E0,4.509813786E-1,2.171761036E0,9.217302322E0
2.793914365E0,4.620425999E-1,2.169318914E0,9.248321533E0
2.813915927E0,4.868465364E-1,2.162778139E0,9.220827103E0
2.833915927E0,5.424686074E-1,2.165047884E0,9.142718315E0
2.853914365E0,5.954570770E-1,2.166809797E0,9.089088440E0
2.873914365E0,5.747903585E-1,2.236825943E0,9.131877899E0
2.893914365E0,4.610274732E-1,2.280390739E0,9.198591232E0
2.913917490E0,3.939898014E-1,2.247513771E0,9.216010094E0
2.933914365E0,3.716375530E-1,2.228005648E0,9.189414978E0
2.953915927E0,3.350349963E-1,2.237831593E0,9.159536362E0
2.973915927E0,2.997061610E-1,2.242686987E0,9.108836174E0
2.993914365E0,2.673078179E-1,2.260308266E0,9.163021088E0
3.013915927E0,2.640995979E-1,2.231357574E0,9.209880829E0
3.033914365E0,3.374866545E-1,2.229767799E0,9.195553780E0
3.053915927E0,4.596484005E-1,2.239382982E0,9.146167755E0
3.073915927E0,6.112300754E-1,2.178464890E0,9.130919456E0
3.093914365E0,7.686344981E-1,2.074968338E0,9.158462524E0
3.113917490E0,8.702923059E-1,2.095022202E0,9.195238113E0
3.133914365E0,9.202640653E-1,2.170841694E0,9.167551994E0
3.153914365E0,8.007934093E-1,2.265556335E0,9.087010384E0
3.173914365E0,5.102905631E-1,2.302532434E0,9.089386940E0
3.193915927E0,2.148077637E-1,2.316591263E0,9.154995918E0
3.213915927E0,3.195780143E-2,2.332373857E0,9.192614555E0
3.233914365E0,4.876509681E-2,2.301900387E0,9.183335304E0
3.253915927E0,6.733452529E-2,2.292170286E0,9.163597107E0
3.273915927E0,2.301210761E-1,2.275650263E0,9.213416100E0
3.293914365E0,3.029048145E-1,2.224941015E0,9.272790909E0
3.313915927E0,4.332451522E-1,2.156218052E0,9.186244965E0
3.333915927E0,4.876892865E-1,2.167489767E0,9.092497826E0
3.353914365E0,5.793680549E-1,2.212529659E0,9.044355392E0
3.373914365E0,6.649847031E-1,2.239325523E0,9.017770767E0
3.393914365E0,7.084251046E-1,2.278236151E0,9.078476906E0
3.413917490E0,6.694570780E-1,2.273859501E0,9.222407341E0
3.433914365E0,5.749723315E-1,2.228513241E0,9.311549187E0
3.453915927E0,4.758906662E-1,2.216580629E0,9.252076149E0
3.473917490E0,4.305061698E-1,2.228302479E0,9.123181343E0
3.493914365E0,3.488543332E-1,2.266762972E0,9.063604355E0
3.513915927E0,3.082391024E-1,2.297552586E0,9.070145607E0
3.533914365E0,3.352265358E-1,2.300741434E0,9.153915405E0
3.553915927E0,3.973512650E-1,2.298270702E0,9.197095871E0
3.573914365E0,4.915104210E-1,2.260193348E0,9.180556297E0
3.593914365E0,5.360808969E-1,2.275975943E0,9.139425278E0
3.613917490E0,5.039411187E-1,2.265135050E0,9.136512756E0
3.633914365E0,4.054819942E-1,2.298739910E0,9.159305573E0
3.653914365E0,3.612754345E-1,2.247149706E0,9.161067963E0
3.673914365E0,3.681037128E-1,2.236653566E0,9.142057419E0
3.693915927E0,4.234959483E-1,2.248701096E0,9.113250732E0
3.713915927E0,4.452257156E-1,2.284231186E0,9.155925751E0
3.733914365E0,5.095435381E-1,2.309303284E0,9.171305656E0
3.753915927E0,5.018916726E-1,2.274606466E0,9.196176529E0
3.773915927E0,4.827189147E-1,2.250175953E0,9.199643135E0
3.793914365E0,4.255549610E-1,2.241882563E0,9.156106949E0
3.813915927E0,3.551845849E-1,2.286615849E0,9.125748634E0
3.833915927E0,3.465463221E-1,2.300195694E0,9.120624542E0
3.853914365E0,3.626066148E-1,2.298117399E0,9.135221481E0
3.873914365E0,3.763014674E-1,2.305166006E0,9.188715935E0
3.893914365E0,3.875254691E-1,2.278906345E0,9.202929497E0
3.913917490E0,4.127220511E-1,2.275822639E0,9.148962975E0
3.933914365E0,4.906964004E-1,2.261610746E0,9.103003502E0
3.953915927E0,5.236693621E-1,2.250568628E0,9.114591599E0
3.973915927E0,5.012500286E-1,2.261677742E0,9.144241333E0
3.993914365E0,4.564880431E-1,2.266887426E0,9.178307533E0
4.013915927E0,3.807163537E-1,2.280927181E0,9.176610947E0
4.033914365E0,3.552707732E-1,2.333580494E0,9.160273552E0
4.053915927E0,2.867391706E-1,2.356430769E0,9.143197060E0
4.073914365E0,2.993230820E-1,2.331119061E0,9.125155449E0
4.093914365E0,3.965085149E-1,2.294133663E0,9.164544106E0
4.113917490E0,4.616116583E-1,2.260787010E0,9.178048134E0
4.133914365E0,4.886852801E-1,2.258594036E0,9.144232750E0
4.153914365E0,5.299612880E-1,2.275382280E0,9.131111145E0
4.173914365E0,5.658072829E-1,2.248490572E0,9.120481491E0
4.193915927E0,5.420280695E-1,2.204829931E0,9.148676872E0
4.213915927E0,4.846438766E-1,2.232650518E0,9.166507721E0
4.233914365E0,4.386751950E-1,2.251363516E0,9.171449661E0
4.253915927E0,4.118888676E-1,2.326905489E0,9.160264015E0
4.273915927E0,3.748553693E-1,2.345666409E0,9.163702011E0
4.293915927E0,2.991507053E-1,2.352102041E0,9.157458305E0
4.313915927E0,3.170306087E-1,2.328744173E0,9.162993431E0
4.333915927E0,3.660351038E-1,2.357100964E0,9.103922844E0
4.353915927E0,4.142160416E-1,2.336597204E0,9.089979172E0
4.373914365E0,4.256220162E-1,2.317280769E0,9.098320007E0
4.393914365E0,4.412992299E-1,2.291787148E0,9.190870285E0
4.413917490E0,4.513836205E-1,2.237438917E0,9.224179268E0
4.433914365E0,4.486159086E-1,2.263890028E0,9.175931931E0
4.453914365E0,4.781412184E-1,2.240273476E0,9.135221481E0
4.473917490E0,5.106736422E-1,2.222297907E0,9.120040894E0
4.493914365E0,5.448245406E-1,2.237017393E0,9.164438248E0
4.513915927E0,5.605017543E-1,2.270277739E0,9.146233559E0
4.533914365E0,5.102522373E-1,2.328523874E0,9.148531914E0
4.553915927E0,4.260242283E-1,2.348223448E0,9.135814667E0
4.573915927E0,3.398042321E-1,2.341921806E0,9.141991615E0
4.593914365E0,2.931460440E-1,2.364360332E0,9.123737335E0
4.613917490E0,3.055288494E-1,2.341940880E0,9.120768547E0
4.633914365E0,3.851887286E-1,2.343540192E0,9.089051247E0
4.653914365E0,5.004264712E-1,2.301469326E0,9.140660286E0
4.673914365E0,5.871157050E-1,2.265498877E0,9.257152557E0
4.693915927E0,6.464152932E-1,2.240330935E0,9.197267532E0
4.713915927E0,6.164398789E-1,2.236500263E0,9.084847450E0
4.733914365E0,5.473049283E-1,2.242064476E0,9.099421501E0
4.753915927E0,3.967575133E-1,2.306305647E0,9.145708084E0
4.773915927E0,2.336166203E-1,2.392784119E0,9.151922226E0
4.793914365E0,1.758014411E-1,2.429013252E0,9.127490997E0
4.813914365E0,3.081720471E-1,2.359092951E0,9.068259239E0
4.833915927E0,5.119569302E-1,2.291854382E0,9.129876137E0
4.853914365E0,6.767929196E-1,2.244458675E0,9.166421890E0
4.873914365E0,7.057340145E-1,2.233129263E0,9.200200081E0
4.893914365E0,6.308050752E-1,2.271963358E0,9.142622948E0
4.913917490E0,5.028014779E-1,2.298242092E0,9.072531700E0
4.933914365E0,4.134019911E-1,2.318018198E0,9.058796883E0
4.953915927E0,3.335697353E-1,2.324549437E0,9.123392105E0
4.973915927E0,2.530766726E-1,2.345110893E0,9.166679382E0
4.993914365E0,2.991219759E-1,2.352264881E0,9.194443703E0
5.013915927E0,3.790212572E-1,2.325622082E0,9.190173149E0
5.033914365E0,4.699626267E-1,2.325966835E0,9.143485069E0
5.053915927E0,5.318479538E-1,2.304486036E0,9.102017403E0
5.073915927E0,5.737656355E-1,2.288454533E0,9.083466530E0
5.093914365E0,5.702221990E-1,2.303298473E0,9.091386795E0
5.113917490E0,5.359755754E-1,2.290274143E0,9.140019417E0
5.133914365E0,5.075228810E-1,2.291787148E0,9.168853760E0
5.153915927E0,4.614775777E-1,2.289881468E0,9.180001259E0
5.173914365E0,4.254496098E-1,2.303633690E0,9.168757439E0
5.193915927E0,4.081060290E-1,2.308067799E0,9.125107765E0
5.213915927E0,3.802758157E-1,2.307703972E0,9.109019279E0
5.233914365E0,4.116590321E-1,2.315192938E0,9.131648064E0
5.253915927E0,4.395371079E-1,2.317778587E0,9.149317741E0
5.273915927E0,4.759576917E-1,2.306497097E0,9.166920662E0
5.293914365E0,5.038262010E-1,2.286548615E0,9.157907486E0
5.313915927E0,5.025429130E-1,2.288195848E0,9.151672363E0
5.333915927E0,4.860229194E-1,2.272509098E0,9.126073837E0
5.353914365E0,4.605965018E-1,2.301747084E0,9.135842323E0
5.373914365E0,4.359074831E-1,2.310787678E0,9.157265663E0
5.393914365E0,4.162750542E-1,2.320555925E0,9.155858040E0
5.413917490E0,4.063917696E-1,2.311831474E0,9.149566650E0
5.433914365E0,4.182191491E-1,2.296087265E0,9.131427765E0
5.453915927E0,4.408395588E-1,2.318889618E0,9.125815392E0
5.473917490E0,4.282173216E-1,2.332038641E0,9.138609886E0
5.493914365E0,4.342698753E-1,2.312070847E0,9.140910149E0
5.513915927E0,4.472081363E-1,2.305089474E0,9.151519775E0
5.533914365E0,4.550611079E-1,2.275152206E0,9.168193817E0
5.553915927E0,4.984727800E-1,2.258670568E0,9.171449661E0
5.573914365E0,5.168602467E-1,2.269262552E0,9.152841568E0
5.593914365E0,4.985876977E-1,2.265450954E0,9.141176224E0
5.613917490E0,4.650305510E-1,2.281722069E0,9.135105133E0
5.633914365E0,4.401883185E-1,2.306142807E0,9.121170998E0
5.653914365E0,4.432720542E-1,2.309370279E0,9.119772911E0
5.673914365E0,4.116494358E-1,2.327518225E0,9.144145012E0
5.693915927E0,4.021492600E-1,2.322136164E0,9.163615227E0
5.713915927E0,3.885406256E-1,2.300914049E0,9.170912743E0
5.733914365E0,3.887512982E-1,2.308086872E0,9.179378510E0
5.753914365E0,4.118697047E-1,2.315863371E0,9.143762589E0
5.773915927E0,4.600697756E-1,2.321168900E0,9.131169319E0
5.793914365E0,4.929852486E-1,2.296374559E0,9.140899658E0
5.813915927E0,5.288121104E-1,2.242342234E0,9.179014206E0
5.833915927E0,5.183350444E-1,2.282919168E0,9.198916435E0
5.853914365E0,4.820581377E-1,2.315844059E0,9.161345482E0
5.873914365E0,4.430613816E-1,2.314235210E0,9.110770226E0
5.893914365E0,3.928693235E-1,2.311055660E0,9.114227295E0
5.913917490E0,3.565061986E-1,2.316428423E0,9.143407822E0
5.933914365E0,3.666576147E-1,2.294880629E0,9.158558846E0
5.953915927E0,4.387518167E-1,2.270632029E0,9.158597946E0
5.973915927E0,4.798554480E-1,2.307991266E0,9.134914398E0
5.993914365E0,5.243014097E-1,2.310002327E0,9.102965355E0
6.013915927E0,5.836776495E-1,2.281444311E0,9.097592354E0
6.033914365E0,5.684217811E-1,2.277125120E0,9.119590759E0
6.053915927E0,5.312637687E-1,2.271264076E0,9.188506126E0
6.073914365E0,4.427644908E-1,2.267749548E0,9.223058701E0
6.093914365E0,3.426772952E-1,2.250204802E0,9.199375153E0
6.113917490E0,2.557581961E-1,2.259130239E0,9.176352501E0
6.133914365E0,2.833106518E-1,2.276493073E0,9.131802559E0
6.153914365E0,3.803811669E-1,2.293817520E0,9.072386742E0
6.173914365E0,5.067375302E-1,2.305233002E0,9.092947960E0
6.193915927E0,6.040858030E-1,2.290341139E0,9.153685570E0
6.213915927E0,5.852290392E-1,2.308019876E0,9.208300591E0
6.233914365E0,5.333132148E-1,2.298682451E0,9.206128120E0
6.253914365E0,4.630768895E-1,2.286127329E0,9.123365402E0
6.273915927E0,4.486255050E-1,2.273514748E0,9.082125664E0
6.293914365E0,4.647049606E-1,2.250894308E0,9.077768326E0
6.313915927E0,4.701924622E-1,2.256755352E0,9.150007248E0
6.333915927E0,4.665245414E-1,2.247686148E0,9.189924240E0
6.353914365E0,4.601081014E-1,2.286606073E0,9.200831413E0
6.373914365E0,4.707287550E-1,2.284279108E0,9.168404579E0
6.393914365E0,4.283801317E-1,2.299467802E0,9.150112152E0
6.413917490E0,4.048594832E-1,2.273916960E0,9.127596855E0
6.433914365E0,4.157674611E-1,2.281731606E0,9.166306496E0
6.453914365E0,4.369800985E-1,2.262702465E0,9.164304733E0
6.473917490E0,4.965861440E-1,2.257569313E0,9.159841537E0
6.493914365E0,5.064502358E-1,2.238770008E0,9.156422615E0
6.513915927E0,5.034814477E-1,2.239574432E0,9.137374878E0
6.533914365E0,5.178275108E-1,2.246795416E0,9.150668144E0
6.553915927E0,5.368374586E-1,2.252618074E0,9.132624626E0
6.573914365E0,5.336101055E-1,2.256812811E0,9.142066956E0
6.593914365E0,5.363873243E-1,2.282287121E0,9.160099983E0
6.613917490E0,4.703552723E-1,2.298280239E0,9.157898903E0
6.633915927E0,4.342315495E-1,2.290867805E0,9.147104263E0
6.653914365E0,3.801992238E-1,2.271618366E0,9.138514519E0
6.673914365E0,3.868263662E-1,2.242102861E0,9.152306557E0
6.693915927E0,4.506557882E-1,2.215613365E0,9.165568352E0
6.713915927E0,5.018534064E-1,2.208832979E0,9.180978775E0
6.733914365E0,5.204994082E-1,2.221694469E0,9.166077614E0
6.753914365E0,5.311967134E-1,2.245368481E0,9.155130386E0
6.773915927E0,5.271552801E-1,2.269741535E0,9.139356613E0
6.793914365E0,4.873349369E-1,2.264320850E0,9.138303757E0
6.813915927E0,4.509718120E-1,2.271139622E0,9.138572693E0
6.833915927E0,4.313297868E-1,2.285380363E0,9.153924942E0
6.853914365E0,4.191385210E-1,2.270210743E0,9.182826042E0
6.873914365E0,4.731516838E-1,2.259637833E0,9.192019463E0
6.893914365E0,5.057607293E-1,2.231558800E0,9.158943176E0
6.913917490E0,5.242152214E-1,2.225132704E0,9.127692223E0
6.933914365E0,5.124931931E-1,2.250175953E0,9.152248383E0
6.953915927E0,4.600793421E-1,2.232152462E0,9.155974388E0
6.973915927E0,4.527435303E-1,2.246728420E0,9.161843300E0
6.993914365E0,4.314542711E-1,2.244343758E0,9.164008141E0
7.013915927E0,4.537969828E-1,2.261505365E0,9.157610893E0
7.033914365E0,4.485201538E-1,2.269760609E0,9.172052383E0
7.053915927E0,4.840117991E-1,2.266906738E0,9.167753220E0
7.073915927E0,4.943355918E-1,2.280716419E0,9.168470383E0
7.093914365E0,4.897961915E-1,2.280228138E0,9.144701004E0
7.113917490E0,5.051861405E-1,2.246718884E0,9.137730598E0
7.133915927E0,4.929182231E-1,2.221828699E0,9.131724358E0
7.153914365E0,4.629907012E-1,2.253566265E0,9.188620567E0
7.173914365E0,4.626555145E-1,2.248155355E0,9.176727295E0
7.193915927E0,4.560571015E-1,2.266226768E0,9.169217110E0
7.213915927E0,4.799991250E-1,2.245559931E0,9.162916183E0
7.233914365E0,4.658350050E-1,2.193586588E0,9.179742813E0
7.253914365E0,4.588056505E-1,2.234393358E0,9.176802635E0
7.273915927E0,4.370088279E-1,2.255864620E0,9.155350685E0
7.293914365E0,4.644559622E-1,2.258316278E0,9.142095566E0
7.313915927E0,4.480796158E-1,2.272269726E0,9.159623146E0
7.333915927E0,4.511633515E-1,2.273093224E0,9.162505150E0
7.353914365E0,4.572159052E-1,2.247791290E0,9.170663834E0
7.373914365E0,4.806407690E-1,2.237735748E0,9.169408798E0
7.393914365E0,5.110567212E-1,2.230122089E0,9.153282166E0
7.413917490E0,5.364256501E-1,2.238090038E0,9.156701088E0
7.433914365E0,5.170134902E-1,2.232200384E0,9.136178017E0
7.453915927E0,4.619276822E-1,2.273811579E0,9.145468712E0
7.473915927E0,4.318565130E-1,2.284729242E0,9.175950050E0
7.493914365E0,4.291462600E-1,2.267519712E0,9.171583176E0
7.513915927E0,4.227585495E-1,2.251545429E0,9.169936180E0
7.533914365E0,4.458482265E-1,2.261179686E0,9.149806976E0
7.553915927E0,4.575127661E-1,2.234470129E0,9.143428802E0
7.573914365E0,4.697519243E-1,2.240886450E0,9.157485962E0
7.593914365E0,4.957816899E-1,2.237457991E0,9.145198822E0
7.613917490E0,4.905048609E-1,2.240024567E0,9.150170326E0
7.633915927E0,4.738795459E-1,2.243692398E0,9.174618721E0
7.653914365E0,4.697423577E-1,2.250156879E0,9.184685707E0
7.673914365E0,4.550706744E-1,2.246575117E0,9.167101860E0
7.693915927E0,4.571680129E-1,2.255768776E0,9.152640343E0
7.713915927E0,4.501577914E-1,2.281750679E0,9.143963814E0
7.733914365E0,4.626267850E-1,2.253642797E0,9.139739990E0
7.753914365E0,4.823933244E-1,2.244707584E0,9.162064552E0
7.773915927E0,4.837532341E-1,2.244774580E0,9.168145180E0
7.793914365E0,4.811100364E-1,2.256946802E0,9.174810410E0
7.813915927E0,4.571296871E-1,2.284623861E0,9.169906616E0
7.833915927E0,4.485009909E-1,2.274079800E0,9.147554398E0
7.853914365E0,4.422090352E-1,2.270584106E0,9.149153709E0
7.873914365E0,4.472272694E-1,2.245521784E0,9.147219658E0
7.893914365E0,4.718013704E-1,2.239449978E0,9.177233696E0
7.913917490E0,4.702403545E-1,2.256611586E0,9.181762695E0
7.933914365E0,4.758332074E-1,2.259187698E0,9.172722816E0
7.953915927E0,4.694359004E-1,2.262654543E0,9.163260460E0
7.973917490E0,4.611040652E-1,2.244487286E0,9.176171303E0
7.993914365E0,4.552622139E-1,2.259264469E0,9.153790474E0
8.013915927E0,4.341357946E-1,2.284441710E0,9.155599594E0
8.033914365E0,4.342698753E-1,2.284508944E0,9.144318581E0
8.053915927E0,4.605965018E-1,2.268745422E0,9.161546707E0
8.073914365E0,4.561624527E-1,2.254073858E0,9.178689003E0
8.093914365E0,4.679898024E-1,2.255452871E0,9.163059235E0
8.113917490E0,4.805641472E-1,2.242236853E0,9.169811249E0
8.133915927E0,4.905144572E-1,2.248548031E0,9.155733109E0
8.153914365E0,5.097063780E-1,2.239277601E0,9.135957718E0
8.173914365E0,4.996124208E-1,2.246536732E0,9.142584801E0
8.193915927E0,4.520635605E-1,2.274749994E0,9.157055855E0
8.213915927E0,4.055873156E-1,2.295081615E0,9.167780876E0
8.233914365E0,4.199621081E-1,2.281252861E0,9.176228523E0
8.253914365E0,4.071387649E-1,2.260643482E0,9.156786919E0
8.273915927E0,4.545439482E-1,2.254782438E0,9.147124290E0
8.293914365E0,4.842799604E-1,2.259025097E0,9.156289101E0
8.313915927E0,4.734198451E-1,2.231166124E0,9.155120850E0
8.333915927E0,4.823645949E-1,2.242399693E0,9.156011581E0
8.353914365E0,4.704414606E-1,2.246757030E0,9.170893669E0
8.373914365E0,4.770590365E-1,2.277086735E0,9.173555374E0
8.393914365E0,4.503780603E-1,2.270967245E0,9.156959534E0
8.413917490E0,4.362714291E-1,2.274884224E0,9.150907516E0
8.433915927E0,4.207282662E-1,2.275928020E0,9.154288292E0
8.453914365E0,4.233235717E-1,2.282612562E0,9.135679245E0
8.473915927E0,4.304199815E-1,2.270967245E0,9.165626526E0
8.493914365E0,4.505408704E-1,2.258095980E0,9.181399345E0
8.513915927E0,4.665437043E-1,2.283809662E0,9.171832085E0
8.533914365E0,4.748946726E-1,2.266083002E0,9.157735825E0
8.553915927E0,4.702882469E-1,2.266083002E0,9.155628204E0
8.573914365E0,4.550898373E-1,2.266494989E0,9.160129547E0
8.593914365E0,4.501194656E-1,2.258306742E0,9.145400047E0
8.613917490E0,4.311574101E-1,2.250846386E0,9.154555321E0
8.633915927E0,4.498226047E-1,2.272068501E0,9.174035072E0
8.653914365E0,4.676450193E-1,2.279959917E0,9.172101021E0
8.673914365E0,4.801906645E-1,2.281415462E0,9.162362099E0
8.693915927E0,4.708915651E-1,2.248816013E0,9.156910896E0
8.713915927E0,4.526477456E-1,2.249697208E0,9.159860611E0
8.733914365E0,4.422664940E-1,2.276981592E0,9.148799896E0
8.753914365E0,4.473613501E-1,2.275085211E0,9.142479897E0
8.773915927E0,4.227872789E-1,2.256199837E0,9.157784462E0
8.793914365E0,4.343369007E-1,2.273418903E0,9.154689789E0
8.813915927E0,4.463366270E-1,2.285945415E0,9.172770500E0
8.833915927E0,4.714661837E-1,2.288981199E0,9.158483505E0
8.853914365E0,5.032132864E-1,2.241058826E0,9.155858040E0
8.873914365E0,5.069578290E-1,2.239689350E0,9.148809433E0
8.893914365E0,5.001487136E-1,2.252981901E0,9.161958694E0
8.913917490E0,4.609508514E-1,2.282229662E0,9.159727097E0
8.933915927E0,4.540842772E-1,2.296776772E0,9.159353256E0
8.953914365E0,4.310328960E-1,2.264388084E0,9.162362099E0
8.973915927E0,4.338771999E-1,2.287314892E0,9.174130440E0
8.993914365E0,4.360511601E-1,2.279404402E0,9.158349037E0
9.013915927E0,4.442201555E-1,2.270813942E0,9.149546623E0
9.033914365E0,4.392210841E-1,2.291155100E0,9.171439171E0
9.053915927E0,4.386943579E-1,2.275583267E0,9.148542404E0
9.073914365E0,4.710735381E-1,2.256582975E0,9.163978577E0
9.093914365E0,4.678652883E-1,2.250128031E0,9.162782669E0
9.113917490E0,4.932917356E-1,2.256649971E0,9.156327248E0
9.133915927E0,4.986547232E-1,2.264857292E0,9.152851105E0
9.153914365E0,4.946899414E-1,2.264196396E0,9.156221390E0
9.173914365E0,4.837532341E-1,2.268630505E0,9.165693283E0
9.193915927E0,4.656722248E-1,2.278666973E0,9.164583206E0
9.213915927E0,4.603570700E-1,2.281252861E0,9.169964790E0
9.233914365E0,4.358787537E-1,2.292448044E0,9.145659447E0
9.253914365E0,4.348540604E-1,2.294181347E0,9.168384552E0
9.273915927E0,4.371524751E-1,2.275458813E0,9.155570984E0
9.293914365E0,4.430230558E-1,2.256458282E0,9.141349792E0
9.313915927E0,4.780837595E-1,2.258795023E0,9.152467728E0
9.333915927E0,4.950825870E-1,2.256822348E0,9.157754898E0
9.353914365E0,4.850556552E-1,2.263162136E0,9.156308174E0
9.373914365E0,5.143798590E-1,2.278935194E0,9.170473099E0
9.393914365E0,4.818474352E-1,2.268151760E0,9.181140900E0
9.413917490E0,4.229883850E-1,2.274673462E0,9.186064720E0
9.433914365E0,3.842980862E-1,2.282976627E0,9.148253441E0
9.453914365E0,3.865678012E-1,2.299285889E0,9.136005402E0
9.473915927E0,3.823348284E-1,2.270565033E0,9.148464203E0
9.493914365E0,4.556644559E-1,2.270354271E0,9.162744522E0
9.513915927E0,4.986068606E-1,2.252474546E0,9.168671608E0
9.533914365E0,5.369236469E-1,2.237046242E0,9.156997681E0
9.553915927E0,5.778549314E-1,2.235724688E0,9.152027130E0
9.573914365E0,5.388198495E-1,2.249936581E0,9.148838997E0
9.593915927E0,4.839064479E-1,2.253623724E0,9.152659416E0
9.613917490E0,4.273745716E-1,2.262625933E0,9.154537201E0
9.633915927E0,3.991804421E-1,2.276368618E0,9.158568382E0
9.653914365E0,3.849014342E-1,2.274817228E0,9.171832085E0
9.673914365E0,4.196365178E-1,2.257626772E0,9.165702820E0
9.693915927E0,4.549270272E-1,2.274357557E0,9.153453827E0
9.713915927E0,4.784668386E-1,2.279098034E0,9.155197144E0
9.733914365E0,4.839160144E-1,2.263947487E0,9.147498131E0
9.753914365E0,4.774804115E-1,2.271139622E0,9.154258728E0
9.773915927E0,4.740902185E-1,2.258287668E0,9.172656059E0
9.793914365E0,4.505983293E-1,2.254332304E0,9.174954414E0
9.813915927E0,4.617936015E-1,2.243941545E0,9.158033371E0
9.833915927E0,4.472559988E-1,2.248509645E0,9.162265778E0
9.853914365E0,4.657679796E-1,2.250233412E0,9.153732300E0
9.873914365E0,4.809280634E-1,2.270919323E0,9.158204079E0
9.893914365E0,4.498226047E-1,2.273782730E0,9.162236214E0
9.913917490E0,4.392210841E-1,2.278341293E0,9.155350685E0
9.933915927E0,4.350168407E-1,2.275372505E0,9.161297798E0
9.953914365E0,4.361852109E-1,2.275382280E0,9.175395012E0
9.973915927E0,4.517379701E-1,2.265182972E0,9.158349037E0
9.993914365E0,4.467388690E-1,2.261026621E0,9.158788681E0
1.001391593E1,4.501865208E-1,2.262539625E0,9.151002884E0
1.003391437E1,4.652220905E-1,2.245617390E0,9.147315025E0
1.005391593E1,4.508377314E-1,2.293118477E0,9.145792961E0
1.007391436E1,4.769632518E-1,2.280601501E0,9.161297798E0
1.009391436E1,4.853525460E-1,2.259101629E0,9.177349091E0
1.011391749E1,4.709777534E-1,2.233330488E0,9.172943115E0
1.013391593E1,4.568711221E-1,2.253096819E0,9.167857170E0
1.015391436E1,4.535575509E-1,2.267040730E0,9.134991646E0
1.017391436E1,4.557985365E-1,2.258239746E0,9.129646301E0
1.019391593E1,4.105864167E-1,2.266159773E0,9.156729698E0
1.021391593E1,4.130189419E-1,2.289316416E0,9.164888382E0
1.023391436E1,4.265796840E-1,2.270545959E0,9.152870178E0
1.025391436E1,4.519007504E-1,2.251449823E0,9.142154694E0
1.027391593E1,4.953507483E-1,2.251210213E0,9.151432991E0
1.029391437E1,5.060958862E-1,2.241413116E0,9.150590897E0
1.031391593E1,4.994208813E-1,2.257425547E0,9.159755707E0
1.033391593E1,4.636323452E-1,2.271149158E0,9.152142525E0
1.035391437E1,4.346816540E-1,2.261764050E0,9.157284737E0
1.037391437E1,4.182382822E-1,2.263468504E0,9.163328171E0
1.039391436E1,4.216667712E-1,2.268889189E0,9.159374237E0
1.041391749E1,4.283609688E-1,2.280927181E0,9.152746201E0
1.043391593E1,4.303720891E-1,2.256487131E0,9.150839806E0
1.045391437E1,4.435881078E-1,2.272346258E0,9.160465240E0
1.047391593E1,4.487308264E-1,2.266035318E0,9.166852951E0
1.049391436E1,4.769536853E-1,2.239881039E0,9.175739288E0
1.051391593E1,4.731421173E-1,2.244468212E0,9.153655052E0
1.053391437E1,4.565550983E-1,2.249907970E0,9.150849342E0
1.055391593E1,4.581735730E-1,2.263765574E0,9.162379265E0
1.057391436E1,4.352371097E-1,2.283493757E0,9.169342995E0
1.059391436E1,4.323449135E-1,2.277929544E0,9.154575348E0
1.061391749E1,4.248941839E-1,2.273667812E0,9.146625519E0
1.063391593E1,4.336665273E-1,2.281472921E0,9.143714905E0
1.065391436E1,4.438179433E-1,2.282555103E0,9.152105331E0
1.067391436E1,4.730846584E-1,2.270450115E0,9.174159050E0
1.069391593E1,4.747031331E-1,2.244927883E0,9.171486855E0
1.071391593E1,4.820389748E-1,2.236050129E0,9.141492844E0
1.073391436E1,4.614775777E-1,2.249543905E0,9.134406090E0
1.075391436E1,4.616116583E-1,2.263909101E0,9.146625519E0
1.077391593E1,4.276905954E-1,2.267874002E0,9.150839806E0
1.079391593E1,4.234289229E-1,2.274749994E0,9.160397530E0
1.081391593E1,4.431858659E-1,2.269971371E0,9.180127144E0
1.083391593E1,4.554058611E-1,2.249649286E0,9.182222366E0
1.085391437E1,4.399872124E-1,2.266590595E0,9.163252831E0
1.087391437E1,4.479838610E-1,2.279069185E0,9.150053978E0
1.089391436E1,4.450150430E-1,2.246163368E0,9.130902290E0
1.091391749E1,4.397861063E-1,2.256103992E0,9.141234398E0
1.093391437E1,4.400063753E-1,2.278427601E0,9.140985489E0
1.095391437E1,4.658062756E-1,2.271685600E0,9.140746117E0
1.097391593E1,4.544769228E-1,2.275133133E0,9.171469688E0
1.099391436E1,5.136424303E-1,2.245971680E0,9.154288292E0
1.101391593E1,5.051765442E-1,2.232008696E0,9.143992424E0
1.103391437E1,4.734102786E-1,2.240857840E0,9.157485962E0
1.105391593E1,4.088721871E-1,2.277220964E0,9.147249222E0
1.107391436E1,4.071962237E-1,2.278858662E0,9.148100853E0
1.109391436E1,3.874584436E-1,2.274089336E0,9.162819862E0
1.111391749E1,3.906187713E-1,2.267194033E0,9.168375015E0
1.113391593E1,4.357638359E-1,2.269080639E0,9.154135704E0
1.115391436E1,4.296155274E-1,2.266983271E0,9.149297714E0
1.117391436E1,4.926596582E-1,2.255261183E0,9.150668144E0
1.119391593E1,5.043720603E-1,2.254428148E0,9.152515411E0
1.121391593E1,4.820485413E-1,2.263334513E0,9.152372360E0
1.123391436E1,4.485776126E-1,2.270593643E0,9.157917023E0
1.125391436E1,4.384261966E-1,2.252503157E0,9.152851105E0
1.127391593E1,4.383879006E-1,2.248739481E0,9.148743629E0
1.129391437E1,4.407916665E-1,2.251995564E0,9.141684532E0
1.131391593E1,4.412513673E-1,2.275975943E0,9.136397362E0
1.133391593E1,4.514506459E-1,2.265422344E0,9.144568443E0
1.135391437E1,4.528776109E-1,2.268027067E0,9.150935173E0
1.137391437E1,4.633067548E-1,2.261151075E0,9.154527664E0
1.139391436E1,4.541800320E-1,2.248423338E0,9.167723656E0
1.141391593E1,4.402649403E-1,2.235150099E0,9.173545837E0
1.143391437E1,4.431858659E-1,2.263688803E0,9.153597832E0
1.145391437E1,4.578192234E-1,2.258268356E0,9.111268997E0
1.147391593E1,4.598686695E-1,2.275640726E0,9.121562958E0
1.149391436E1,4.568423927E-1,2.280524969E0,9.143963814E0
1.151391593E1,4.668309987E-1,2.279107571E0,9.162388802E0
1.153391437E1,4.766951203E-1,2.253738642E0,9.164908409E0
1.155391593E1,4.704510272E-1,2.250214338E0,9.161106110E0
1.157391436E1,4.194641113E-1,2.254801512E0,9.172761917E0
1.159391437E1,3.919978440E-1,2.272432566E0,9.162714958E0
1.161391437E1,4.127890766E-1,2.263076067E0,9.151807785E0
1.163391593E1,4.423910081E-1,2.241508961E0,9.144604683E0
1.165391593E1,4.520922899E-1,2.267586708E0,9.144768715E0
1.167391436E1,4.661606252E-1,2.272499561E0,9.153521538E0
1.169391593E1,4.631152153E-1,2.281942368E0,9.149747849E0
1.171391593E1,4.749808609E-1,2.254868746E0,9.155369759E0
1.173391436E1,4.890300333E-1,2.216408253E0,9.150063515E0
1.175391593E1,4.892215729E-1,2.218754530E0,9.142095566E0
1.177391593E1,4.867507517E-1,2.253690720E0,9.135238647E0
1.179391437E1,4.399489164E-1,2.289450407E0,9.146857262E0
1.181391593E1,4.201823771E-1,2.305912971E0,9.165856361E0
1.183391593E1,4.120612442E-1,2.267385483E0,9.161719322E0
1.185391437E1,4.225191176E-1,2.256190300E0,9.162093163E0
1.187391437E1,4.371141791E-1,2.287659645E0,9.154288292E0
1.189391436E1,4.315500557E-1,2.264991283E0,9.151711464E0
1.191391749E1,4.625023007E-1,2.263324976E0,9.149891853E0
1.193391437E1,4.640249908E-1,2.254131317E0,9.154057503E0
1.195391437E1,4.718588293E-1,2.240455627E0,9.145267487E0
1.197391593E1,4.692060649E-1,2.254418612E0,9.143543243E0
1.199391436E1,4.777102470E-1,2.249103308E0,9.146817207E0
1.201391593E1,4.804875255E-1,2.240809917E0,9.162858963E0
1.203391437E1,4.560762644E-1,2.233818769E0,9.191617966E0
1.205391593E1,4.347487092E-1,2.236193895E0,9.154651642E0
1.207391436E1,3.903123140E-1,2.245416403E0,9.144270897E0
1.209391437E1,4.027430117E-1,2.267969608E0,9.153790474E0
1.211391593E1,4.233618677E-1,2.248567104E0,9.140955925E0
1.213391593E1,4.288302362E-1,2.276674986E0,9.161203384E0
1.215391436E1,4.645038545E-1,2.261543751E0,9.158424377E0
1.217391436E1,4.996890426E-1,2.287975550E0,9.160579681E0
1.219391593E1,4.897100031E-1,2.272940159E0,9.140995026E0
1.221391593E1,4.705851078E-1,2.271474838E0,9.145783424E0
1.223391436E1,4.594568610E-1,2.270066977E0,9.150935173E0
1.225391436E1,4.524945319E-1,2.252225399E0,9.161987305E0
1.227391593E1,4.403511286E-1,2.283062696E0,9.158943176E0
1.229391437E1,4.279587567E-1,2.259360075E0,9.157026291E0
1.231391593E1,4.227202237E-1,2.236481190E0,9.164553642E0
1.233391593E1,4.203834832E-1,2.270766258E0,9.176601410E0
1.235391593E1,4.239460528E-1,2.254045010E0,9.157496452E0
1.237391437E1,4.421994686E-1,2.242897749E0,9.153080940E0
1.239391436E1,4.396807551E-1,2.233952999E0,9.146913528E0
1.241391749E1,4.346433580E-1,2.250654936E0,9.149682045E0
1.243391437E1,4.366066158E-1,2.266810894E0,9.152985573E0
1.245391437E1,4.518624544E-1,2.271101236E0,9.146799088E0
1.247391593E1,4.510867298E-1,2.261524439E0,9.167024612E0
1.249391593E1,4.969979525E-1,2.256305218E0,9.140707016E0
1.251391593E1,4.832648039E-1,2.250674009E0,9.137508392E0
1.253391437E1,4.456758499E-1,2.281789064E0,9.130125046E0
1.255391593E1,4.174242616E-1,2.285418749E0,9.155111313E0
1.257391436E1,4.331206381E-1,2.273045540E0,9.160762787E0
1.259391437E1,4.439807534E-1,2.249438524E0,9.167101860E0
1.261391437E1,4.150396287E-1,2.274386168E0,9.158616066E0
1.263391593E1,4.361756444E-1,2.283321381E0,9.159018517E0
1.265391436E1,4.476869702E-1,2.266063929E0,9.168203354E0
1.267391436E1,4.461929798E-1,2.236002445E0,9.160963058E0
1.269391593E1,4.792042375E-1,2.246067524E0,9.144118309E0
1.271391593E1,4.643889070E-1,2.270928860E0,9.147191048E0
1.273391436E1,4.623298943E-1,2.280180216E0,9.159124374E0
1.275391436E1,4.661797881E-1,2.256669044E0,9.159679413E0
1.277391593E1,4.432816505E-1,2.262558937E0,9.161058426E0
1.279391437E1,4.359745383E-1,2.259925127E0,9.167054176E0
1.281391593E1,4.113717079E-1,2.272604942E0,9.152524948E0
1.283391593E1,3.940760195E-1,2.272346258E0,9.144404411E0
1.285391437E1,4.423335195E-1,2.269751072E0,9.144374847E0
1.287391437E1,4.512016475E-1,2.272011042E0,9.155043602E0
1.289391436E1,4.744445682E-1,2.280649424E0,9.173623085E0
1.291391749E1,4.933395982E-1,2.275803566E0,9.165282249E0
1.293391437E1,4.937801361E-1,2.249304533E0,9.155493736E0
1.295391437E1,4.792808592E-1,2.260595560E0,9.146864891E0
1.297391593E1,4.619085193E-1,2.304543495E0,9.142192841E0
1.299391593E1,4.336282313E-1,2.307627201E0,9.161537170E0
1.301391593E1,4.426400065E-1,2.278877735E0,9.173766136E0
1.303391437E1,4.084603786E-1,2.255337954E0,9.175318718E0
1.305391593E1,4.227202237E-1,2.244362831E0,9.176708221E0
1.307391436E1,4.269244671E-1,2.271043777E0,9.140621185E0
1.309391437E1,4.249420464E-1,2.263890028E0,9.137740135E0
1.311391593E1,4.307647645E-1,2.278283834E0,9.154986382E0
1.313391593E1,4.327184260E-1,2.283704519E0,9.174581528E0
1.315391436E1,4.773080349E-1,2.271551371E0,9.159038544E0
1.317391437E1,5.206047893E-1,2.256276369E0,9.146857262E0
1.319391593E1,5.088636279E-1,2.257253170E0,9.128419876E0
1.321391593E1,5.077335238E-1,2.263257980E0,9.144108772E0
1.323391436E1,4.756033719E-1,2.279701233E0,9.147239685E0
1.325391436E1,4.163708091E-1,2.311007977E0,9.165904045E0
1.327391593E1,4.085657001E-1,2.283647060E0,9.171927452E0
1.329391593E1,3.952826858E-1,2.254447222E0,9.164094925E0
1.331391593E1,4.168783724E-1,2.272317648E0,9.160339355E0
1.333391593E1,4.450342059E-1,2.259772062E0,9.134311676E0
1.335391437E1,4.812536836E-1,2.264215708E0,9.134962082E0
1.337391437E1,4.806120396E-1,2.262846231E0,9.159584045E0
1.339391436E1,5.205473304E-1,2.262817383E0,9.179120064E0
1.341391749E1,4.928033054E-1,2.267596245E0,9.159393311E0
1.343391437E1,4.686601758E-1,2.268103838E0,9.140669823E0
1.345391437E1,4.545822740E-1,2.283014774E0,9.130125046E0
1.347391593E1,4.489798248E-1,2.258153439E0,9.144270897E0
1.349391593E1,4.395179451E-1,2.250817537E0,9.162907600E0
1.351391593E1,4.408012331E-1,2.270019054E0,9.154555321E0
1.353391437E1,4.659882486E-1,2.271302462E0,9.139050484E0
1.355391593E1,4.573403895E-1,2.292850256E0,9.140256882E0
1.357391436E1,4.489606917E-1,2.273131609E0,9.152506828E0
1.359391437E1,4.440861046E-1,2.257617235E0,9.163969040E0
1.361391437E1,4.250186682E-1,2.249572754E0,9.142948151E0
1.363391593E1,4.510771632E-1,2.267337561E0,9.139050484E0
1.365391436E1,4.826231599E-1,2.281856060E0,9.137211800E0
1.367391437E1,4.983482659E-1,2.287698030E0,9.153607368E0
1.369391593E1,4.852855206E-1,2.299199581E0,9.179177284E0
1.371391593E1,4.587864876E-1,2.261907578E0,9.174744606E0
1.373391436E1,4.194545448E-1,2.260346651E0,9.172551155E0
1.375391436E1,4.268957078E-1,2.283244610E0,9.133678436E0
1.377391593E1,4.201057553E-1,2.281607151E0,9.117560387E0
1.379391593E1,4.487787187E-1,2.283330917E0,9.146970749E0
1.381391593E1,4.365491569E-1,2.264167786E0,9.170825958E0
1.383391593E1,4.489798248E-1,2.271311998E0,9.180939674E0
1.385391437E1,4.822688103E-1,2.253527880E0,9.167330742E0
1.387391437E1,5.007712245E-1,2.243884087E0,9.118231773E0
1.389391436E1,4.984631836E-1,2.265489340E0,9.114295006E0
1.391391749E1,4.886757135E-1,2.241221666E0,9.136809349E0
1.393391437E1,4.484914243E-1,2.283043623E0,9.154948235E0
1.395391437E1,4.305540621E-1,2.291902065E0,9.168394089E0
1.397391593E1,4.093605876E-1,2.271273613E0,9.153204918E0
1.399391593E1,4.188703597E-1,2.247858524E0,9.142814636E0
1.401391593E1,4.332738817E-1,2.268898726E0,9.135937691E0
1.403391437E1,4.493820667E-1,2.283369303E0,9.147880554E0
1.405391593E1,4.518432915E-1,2.277517796E0,9.152678490E0
1.407391436E1,4.562965035E-1,2.285552740E0,9.156250954E0
1.409391593E1,4.519390762E-1,2.268783808E0,9.166316032E0
1.411391593E1,4.502439797E-1,2.269387007E0,9.161575317E0
1.413391593E1,4.260625541E-1,2.265891552E0,9.143963814E0
1.415391436E1,4.079432189E-1,2.242801905E0,9.138485909E0
1.417391437E1,4.507419765E-1,2.248528719E0,9.137940407E0
1.419391593E1,4.361564815E-1,2.263650656E0,9.127845764E0
1.421391593E1,4.598112106E-1,2.281942368E0,9.135785103E0
1.423391436E1,4.537873864E-1,2.283177614E0,9.151586533E0
1.425391437E1,4.531074464E-1,2.260519028E0,9.169858932E0
1.427391593E1,4.325651824E-1,2.276014328E0,9.158903122E0
1.429391593E1,4.412896633E-1,2.257914066E0,9.157458305E0
1.431391593E1,4.404277503E-1,2.262913227E0,9.140678406E0
1.433391593E1,4.483190477E-1,2.266887426E0,9.124495506E0
1.435391437E1,4.360702932E-1,2.259321928E0,9.158654213E0
1.437391593E1,4.488745034E-1,2.261840582E0,9.183515549E0
1.439391436E1,4.298262298E-1,2.247475386E0,9.150581360E0
1.441391593E1,4.521210194E-1,2.248739481E0,9.139875412E0
1.443391437E1,4.328333437E-1,2.261428833E0,9.164592743E0
1.445391437E1,4.300752282E-1,2.270086288E0,9.153244972E0
1.447391593E1,4.325268865E-1,2.299994469E0,9.129205704E0
1.449391593E1,4.476295114E-1,2.261792660E0,9.137910843E0
1.451391593E1,4.417302012E-1,2.245282173E0,9.133687973E0
1.453391437E1,4.300369024E-1,2.267548323E0,9.150276184E0
1.455391593E1,4.223754704E-1,2.265623331E0,9.144902229E0
1.457391436E1,4.373344481E-1,2.244745970E0,9.166402817E0
1.459391437E1,4.583363831E-1,2.245330095E0,9.152400970E0
1.461391437E1,4.755554795E-1,2.240790844E0,9.142545700E0
1.463391593E1,4.995070696E-1,2.248883247E0,9.128267288E0
1.465391436E1,4.584895968E-1,2.245809078E0,9.153388023E0
1.467391437E1,4.329386950E-1,2.259283543E0,9.163518906E0
1.469391593E1,4.111514390E-1,2.279778004E0,9.160992622E0
1.471391593E1,4.122623503E-1,2.272030354E0,9.138093948E0
1.473391436E1,4.256124198E-1,2.273476362E0,9.140190125E0
1.475391437E1,4.136988819E-1,2.277086735E0,9.130871773E0
1.477391593E1,4.108928740E-1,2.264292240E0,9.165675163E0
1.479391593E1,4.326418042E-1,2.263210058E0,9.162025452E0
1.481391593E1,4.549461901E-1,2.263267517E0,9.160924911E0
1.483391593E1,4.585470557E-1,2.247628689E0,9.159976959E0
1.485391437E1,4.567083120E-1,2.240963221E0,9.142613411E0
1.487391437E1,4.754118323E-1,2.236711025E0,9.145764351E0
1.489391436E1,4.721844494E-1,2.252340317E0,9.153032303E0
1.491391749E1,4.359745383E-1,2.249103308E0,9.140910149E0
1.493391437E1,4.247983992E-1,2.265393496E0,9.155829430E0
1.495391437E1,4.361181855E-1,2.269636154E0,9.141234398E0
1.497391593E1,4.275182188E-1,2.281903982E0,9.140890121E0
1.499391593E1,4.257848263E-1,2.262127876E0,9.149642944E0
1.501391593E1,4.181999862E-1,2.250865459E0,9.148686409E0
1.503391437E1,4.332259893E-1,2.267213106E0,9.152065277E0
1.505391593E1,4.674535096E-1,2.255740166E0,9.136600494E0
1.507391436E1,4.850460887E-1,2.252761841E0,9.140544891E0
1.509391437E1,4.685356617E-1,2.229624271E0,9.171180725E0
1.511391593E1,4.528105557E-1,2.236136436E0,9.163434029E0
1.513391593E1,4.317224324E-1,2.243740320E0,9.162993431E0
1.515391436E1,4.504546523E-1,2.258737564E0,9.146702766E0
1.517391437E1,4.417972267E-1,2.249572754E0,9.160550117E0
1.519391593E1,4.315883517E-1,2.275295973E0,9.158319473E0
1.521391593E1,4.446511269E-1,2.276042938E0,9.136111259E0
1.523391436E1,4.414620399E-1,2.235676765E0,9.141856194E0
1.525391437E1,4.488840699E-1,2.232315302E0,9.151079178E0
1.527391593E1,4.364150763E-1,2.274041414E0,9.158846855E0
1.529391593E1,4.437030256E-1,2.273457289E0,9.145831108E0
1.531391593E1,4.484435320E-1,2.257732153E0,9.135257721E0
1.533391593E1,4.463078976E-1,2.254619598E0,9.127203941E0
1.535391437E1,4.755267501E-1,2.250300407E0,9.148359299E0
1.537391437E1,4.863581061E-1,2.226119041E0,9.167034149E0
1.539391436E1,4.892215729E-1,2.260815859E0,9.162236214E0
1.541391593E1,4.359841049E-1,2.259992123E0,9.158943176E0
1.543391437E1,4.329769909E-1,2.250175953E0,9.163942337E0
1.545391437E1,4.137850702E-1,2.245368481E0,9.136321068E0
1.547391593E1,4.439328611E-1,2.261601210E0,9.158462524E0
1.549391593E1,4.301422536E-1,2.259235620E0,9.138984680E0
1.551391593E1,4.467675984E-1,2.252637148E0,9.170482635E0
1.553391437E1,4.545631111E-1,2.256487131E0,9.163662910E0
1.555391593E1,4.425250590E-1,2.253020287E0,9.163644791E0
1.557391436E1,4.449096918E-1,2.268640041E0,9.152716637E0
1.559391437E1,4.400734007E-1,2.264052868E0,9.150696754E0
1.561391593E1,4.386943579E-1,2.260940313E0,9.146407127E0
1.563391593E1,4.565455019E-1,2.248327732E0,9.151836395E0
1.565391436E1,4.273075163E-1,2.267184496E0,9.150027275E0
1.567391437E1,4.600889385E-1,2.256697893E0,9.144097328E0
1.569391593E1,4.366257489E-1,2.264675379E0,9.161653519E0
1.571391593E1,4.164665937E-1,2.267739773E0,9.146693230E0
1.573391436E1,4.297975004E-1,2.252311707E0,9.161680222E0
1.575391437E1,4.412992299E-1,2.250674009E0,9.159075737E0
1.577391593E1,4.393742979E-1,2.279978991E0,9.141349792E0
1.579391437E1,4.262923896E-1,2.260279655E0,9.152678490E0
1.581391593E1,4.305636287E-1,2.252282858E0,9.159095764E0
1.583391749E1,4.185064435E-1,2.243865013E0,9.170941353E0
1.585391437E1,4.257369339E-1,2.254217386E0,9.168126106E0
1.587391437E1,4.354573786E-1,2.257406473E0,9.159937859E0
1.589391436E1,4.596962929E-1,2.248413801E0,9.157313347E0
1.591391749E1,4.358021617E-1,2.244180918E0,9.176094055E0
1.593391437E1,4.396328628E-1,2.250520706E0,9.170874596E0
1.595391437E1,4.377366602E-1,2.248394728E0,9.155676842E0
1.597391593E1,4.331972599E-1,2.247820139E0,9.150811195E0
1.599391593E1,4.282747805E-1,2.263391972E0,9.152545929E0
1.601391593E1,4.132870734E-1,2.256027460E0,9.161786079E0
1.603391436E1,4.273171127E-1,2.270354271E0,9.162638664E0
1.605391593E1,4.363959134E-1,2.254610062E0,9.161173820E0
1.607391436E1,4.536341727E-1,2.239172220E0,9.157179832E0
1.609391436E1,4.994017184E-1,2.263554811E0,9.150982857E0
1.611391593E1,4.502152503E-1,2.243759632E0,9.143082619E0
1.613391593E1,4.267712235E-1,2.265115738E0,9.150506020E0
1.615391437E1,4.032984674E-1,2.262941837E0,9.171315193E0
1.617391436E1,4.105002284E-1,2.231644869E0,9.182702065E0
1.619391593E1,4.085561335E-1,2.250760078E0,9.155514717E0
1.621391593E1,4.360032678E-1,2.253623724E0,9.144374847E0
1.623391436E1,4.655094147E-1,2.271302462E0,9.156988144E0
1.625391436E1,4.881298244E-1,2.265048742E0,9.158338547E0
1.627391593E1,4.822784066E-1,2.271311998E0,9.163059235E0
1.629391437E1,4.641303420E-1,2.265479803E0,9.165894508E0
1.631391593E1,4.539406300E-1,2.245751619E0,9.174781799E0
1.633391593E1,4.415194988E-1,2.261524439E0,9.159143448E0
1.635391436E1,4.303720891E-1,2.277709246E0,9.147000313E0
1.637391436E1,4.029728472E-1,2.268074989E0,9.144509315E0
1.639391436E1,3.979737759E-1,2.280994177E0,9.179226875E0
1.641391749E1,3.934726715E-1,2.256353140E0,9.189894676E0
1.643391436E1,4.215997458E-1,2.236414194E0,9.172560692E0
1.645391436E1,4.491522312E-1,2.230859518E0,9.156471252E0
1.647391593E1,4.872870743E-1,2.226990461E0,9.144118309E0
1.649391593E1,4.826327264E-1,2.247733831E0,9.161575317E0
1.651391593E1,4.336377978E-1,2.288052320E0,9.171266556E0
1.653391436E1,4.451969862E-1,2.292055368E0,9.147909164E0
1.655391593E1,4.714374542E-1,2.258095980E0,9.124934196E0
1.657391436E1,4.391540289E-1,2.281233549E0,9.135805130E0
1.659391436E1,4.432720542E-1,2.284872770E0,9.138275146E0
1.661391593E1,4.307456017E-1,2.262817383E0,9.177444458E0
1.663391593E1,4.014788866E-1,2.244267225E0,9.180843353E0
1.665391437E1,3.525222540E-1,2.243261576E0,9.162955284E0
1.667391436E1,3.209762573E-1,2.269195557E0,9.155877113E0
1.669391593E1,3.941047490E-1,2.311477184E0,9.203225136E0
1.671391593E1,5.624841452E-1,2.268994331E0,9.174063683E0
1.673391436E1,7.402200699E-1,2.221254110E0,9.145563126E0
1.675391436E1,7.080898881E-1,2.181577444E0,9.098963737E0
1.677391593E1,5.244546533E-1,2.225132704E0,9.113231659E0
1.679391593E1,3.801800609E-1,2.283177614E0,9.132538795E0
1.681391593E1,3.104034364E-1,2.307272911E0,9.130193710E0
1.683391593E1,3.095702529E-1,2.309849024E0,9.151098251E0
1.685391436E1,3.110355139E-1,2.302513361E0,9.217761993E0
1.687391436E1,3.459238112E-1,2.308613777E0,9.221028328E0
1.689391436E1,4.252389371E-1,2.288655519E0,9.145926476E0
1.691391749E1,5.373258591E-1,2.255529404E0,9.032402992E0
1.693391436E1,5.783911943E-1,2.262146950E0,9.116440773E0
1.695391437E1,5.447383523E-1,2.263535738E0,9.197890282E0
1.697391593E1,4.894514084E-1,2.249917507E0,9.239693642E0
1.699391593E1,3.704021275E-1,2.224921942E0,9.192949295E0
1.701391593E1,3.019950092E-1,2.234546661E0,9.145860672E0
1.703391436E1,3.387986720E-1,2.259896517E0,9.091261864E0
1.705391593E1,4.646857977E-1,2.283416986E0,9.103875160E0
1.707391436E1,6.059341431E-1,2.267002344E0,9.171735764E0
1.709391436E1,6.635673642E-1,2.268936872E0,9.237578392E0
1.711391593E1,5.599654317E-1,2.257013798E0,9.230030060E0
1.713391593E1,4.089487791E-1,2.286328554E0,9.135248184E0
1.715391437E1,2.825157940E-1,2.330238104E0,9.071842194E0
1.717391436E1,2.362215072E-1,2.356880903E0,9.033580780E0
1.719391593E1,3.173179030E-1,2.286970139E0,9.137365341E0
1.721391593E1,4.659882486E-1,2.228101492E0,9.252497673E0
1.723391436E1,5.380441546E-1,2.189736843E0,9.252603531E0
1.725391436E1,6.033962369E-1,2.205327749E0,9.150600433E0
1.727391593E1,5.945090055E-1,2.237314463E0,9.092995644E0
1.729391437E1,5.261784792E-1,2.307119608E0,9.088973045E0
1.731391593E1,4.596579671E-1,2.312473059E0,9.148072243E0
1.733391749E1,3.867305815E-1,2.300463915E0,9.198111534E0
1.735391436E1,3.440659344E-1,2.270325661E0,9.213932037E0
1.737391436E1,3.288100660E-1,2.263200521E0,9.171919823E0
1.739391436E1,3.746925592E-1,2.298759222E0,9.105101585E0
1.741391749E1,4.264551997E-1,2.278015852E0,9.103808403E0
1.743391436E1,4.662180841E-1,2.272394180E0,9.147171974E0
1.745391437E1,4.936364889E-1,2.248346806E0,9.213281631E0
1.747391437E1,5.293579698E-1,2.232238770E0,9.188725471E0
1.749391593E1,5.349987149E-1,2.214713097E0,9.162599564E0
1.751391593E1,5.025907755E-1,2.233004808E0,9.119791985E0
1.753391436E1,4.818091393E-1,2.252043486E0,9.143543243E0
1.755391749E1,4.122815132E-1,2.273418903E0,9.164535522E0
1.757391436E1,3.884352744E-1,2.285026073E0,9.170320511E0
1.759391436E1,3.678451478E-1,2.274165869E0,9.169533730E0
1.761391593E1,3.891056478E-1,2.287391424E0,9.155916214E0
1.763391593E1,4.027813375E-1,2.286759377E0,9.133218765E0
1.765391437E1,4.204888344E-1,2.292170286E0,9.125518799E0
1.767391436E1,4.431284070E-1,2.278561592E0,9.167513847E0
1.769391593E1,4.495640099E-1,2.269358397E0,9.195371628E0
1.771391593E1,4.580873847E-1,2.246335745E0,9.185631752E0
1.773391436E1,4.636706710E-1,2.229212284E0,9.167397499E0
1.775391436E1,4.430230558E-1,2.222479820E0,9.143944740E0
1.777391593E1,4.366928041E-1,2.229719877E0,9.134645462E0
1.779391437E1,4.547546506E-1,2.240838528E0,9.166402817E0
1.781391593E1,4.651454985E-1,2.257540464E0,9.192949295E0
1.783391593E1,4.335899055E-1,2.276473999E0,9.198436737E0
1.785391436E1,4.526477456E-1,2.264368773E0,9.169074059E0
1.787391436E1,4.550802708E-1,2.248433113E0,9.115309715E0
1.789391436E1,4.284854829E-1,2.309542656E0,9.095830917E0
1.791391749E1,4.112472236E-1,2.316840172E0,9.154804230E0
1.793391436E1,4.134594500E-1,2.296479940E0,9.202199936E0
1.795391437E1,3.987207711E-1,2.239335060E0,9.239684105E0
1.797391437E1,3.799214959E-1,2.164904118E0,9.201741219E0
1.799391593E1,4.006935656E-1,2.185293198E0,9.140505791E0
1.801391593E1,4.621096253E-1,2.184383392E0,9.085084915E0
1.803391436E1,5.744838715E-1,2.193146229E0,9.126035690E0
1.805391593E1,6.089412570E-1,2.233598471E0,9.230816841E0
1.807391436E1,5.171092153E-1,2.306928158E0,9.246473312E0
1.809391436E1,3.603943884E-1,2.348137140E0,9.174935341E0
1.811391593E1,2.621171772E-1,2.342113256E0,9.085247993E0
1.813391593E1,2.180255800E-1,2.328657866E0,9.074167252E0
1.815391593E1,2.681601644E-1,2.288875818E0,9.121592522E0
1.817391436E1,4.020726383E-1,2.288722754E0,9.182979584E0
1.819391593E1,5.408501625E-1,2.253432035E0,9.216067314E0
1.821391593E1,6.123409867E-1,2.181031466E0,9.168490410E0
1.823391436E1,6.472484469E-1,2.139717102E0,9.125710487E0
1.825391436E1,5.165442228E-1,2.162059784E0,9.137969971E0
1.827391593E1,3.844704628E-1,2.200137138E0,9.151108742E0
1.829391437E1,3.102981150E-1,2.271838665E0,9.161663055E0
1.831391593E1,3.320183158E-1,2.313181877E0,9.158760071E0
1.833391593E1,3.896802664E-1,2.293578148E0,9.176018715E0
1.835391749E1,4.217721224E-1,2.264531612E0,9.190410614E0
1.837391436E1,4.370183945E-1,2.255146265E0,9.189137459E0
1.839391436E1,4.273266792E-1,2.240216017E0,9.147057533E0
1.841391749E1,4.304104149E-1,2.249476910E0,9.103003502E0
1.843391436E1,4.319331348E-1,2.258670568E0,9.098080635E0
1.845391437E1,4.583076537E-1,2.288540602E0,9.147201538E0
1.847391437E1,5.118802786E-1,2.316121817E0,9.161833763E0
1.849391593E1,4.847779274E-1,2.273830652E0,9.167561531E0
1.851391593E1,4.259188771E-1,2.262855768E0,9.159613609E0
1.853391436E1,3.760524690E-1,2.263248444E0,9.135001183E0
1.855391749E1,3.303136230E-1,2.271283388E0,9.140449524E0
1.857391436E1,2.535938323E-1,2.293491840E0,9.144922256E0
1.859391436E1,2.232640833E-1,2.330707312E0,9.134952545E0
1.861391593E1,2.828509808E-1,2.357292652E0,9.152429581E0
1.863391593E1,4.510292709E-1,2.343798876E0,9.175748825E0
1.865391437E1,5.597451925E-1,2.263631344E0,9.145831108E0
1.867391436E1,6.332471967E-1,2.161389351E0,9.116277695E0
1.869391593E1,5.767631531E-1,2.110095978E0,9.150513649E0
1.871391593E1,4.412705004E-1,2.201535463E0,9.162638664E0
1.873391436E1,3.820475340E-1,2.292486429E0,9.145323753E0
1.875391436E1,3.960009515E-1,2.347409248E0,9.140716553E0
1.877391593E1,4.059991241E-1,2.290130377E0,9.168290138E0
1.879391437E1,3.855047524E-1,2.308336020E0,9.136216164E0
1.881391593E1,3.409821987E-1,2.346767664E0,9.091751099E0
1.883391593E1,3.738976717E-1,2.341711044E0,9.069035530E0
1.885391593E1,4.136988819E-1,2.297131062E0,9.109612465E0
1.887391436E1,4.775953293E-1,2.288464069E0,9.200323105E0
1.889391436E1,5.261210203E-1,2.281597614E0,9.180163383E0
1.891391749E1,5.102235079E-1,2.255251646E0,9.134645462E0
1.893391436E1,4.457428753E-1,2.226961851E0,9.085295677E0
1.895391437E1,3.814825118E-1,2.240704536E0,9.128056526E0
1.897391593E1,3.667533696E-1,2.271216154E0,9.189424515E0
1.899391593E1,3.853419721E-1,2.270038366E0,9.160703659E0
1.901391593E1,4.309084117E-1,2.235647917E0,9.133784294E0
1.903391436E1,4.481179118E-1,2.197551489E0,9.136504173E0
1.905391593E1,5.243397355E-1,2.239785194E0,9.117033958E0
1.907391436E1,5.731527209E-1,2.331981182E0,9.081445694E0
1.909391436E1,5.257954001E-1,2.398798466E0,9.070864677E0
1.911391593E1,4.041220844E-1,2.448090315E0,9.115052223E0
1.913391593E1,3.131519854E-1,2.442430496E0,9.180968285E0
1.915391593E1,2.314618379E-1,2.375977039E0,9.169811249E0
1.917391436E1,1.578449160E-1,2.315250397E0,9.171716690E0
1.919391593E1,2.106418610E-1,2.238750935E0,9.120846748E0
1.921391593E1,3.471496701E-1,2.226032972E0,9.101058960E0
1.923391436E1,4.768387675E-1,2.219108820E0,9.120645523E0
1.925391436E1,5.913199186E-1,2.252579689E0,9.151232719E0
1.927391593E1,7.243321538E-1,2.275085211E0,9.180988312E0
1.929391437E1,6.880552173E-1,2.256592512E0,9.178813934E0
1.931391593E1,5.535681248E-1,2.263487816E0,9.159727097E0
1.933391593E1,4.465473294E-1,2.290887117E0,9.069973946E0
1.935391593E1,3.535182178E-1,2.350933552E0,9.106116295E0
1.937391436E1,2.551261187E-1,2.401642799E0,9.129770279E0
1.939391436E1,2.093106806E-1,2.448703289E0,9.129971504E0
1.941391749E1,2.612074018E-1,2.347160339E0,9.146654129E0
1.943391436E1,3.430891037E-1,2.280639887E0,9.174218178E0
1.945391437E1,4.206612110E-1,2.276837826E0,9.183132172E0
1.947391437E1,4.975150824E-1,2.258833408E0,9.149058342E0
1.949391593E1,5.658168793E-1,2.288789749E0,9.105886459E0
1.951391593E1,6.133273840E-1,2.298002481E0,9.085783958E0
1.953391436E1,5.551387072E-1,2.265977859E0,9.124848366E0
1.955391593E1,4.316841364E-1,2.286338091E0,9.159966469E0
1.957391436E1,3.687070608E-1,2.258460045E0,9.188094139E0
1.959391436E1,3.557592034E-1,2.264962673E0,9.163011551E0
1.961391437E1,3.834936321E-1,2.325966835E0,9.126236916E0
1.963391593E1,4.417302012E-1,2.388407707E0,9.097994804E0
1.965391437E1,4.973044097E-1,2.384787560E0,9.114659309E0
1.967391436E1,5.321065187E-1,2.350857019E0,9.070652962E0
1.969391593E1,4.553579986E-1,2.284202337E0,9.090190887E0
1.971391593E1,3.358969092E-1,2.275966406E0,9.158837318E0
1.973391436E1,2.805716991E-1,2.214981318E0,9.178861618E0
1.975391436E1,3.024163842E-1,2.212299824E0,9.161863327E0
1.977391593E1,3.982036114E-1,2.205615044E0,9.093896866E0
1.979391437E1,5.823081136E-1,2.213228703E0,9.071027756E0
1.981391593E1,7.568837404E-1,2.238559246E0,9.111393929E0
1.983391593E1,7.482550144E-1,2.298730373E0,9.209918976E0
1.985391593E1,6.203088760E-1,2.357100964E0,9.182950974E0
1.987391436E1,4.332355559E-1,2.369043350E0,9.138706207E0
1.989391436E1,2.960765362E-1,2.371428013E0,9.038350105E0
1.991391749E1,1.893717647E-1,2.367242813E0,9.012263298E0
1.993391436E1,1.465347111E-1,2.351374149E0,9.120040894E0
1.995391437E1,2.014672756E-1,2.314991951E0,9.245708466E0
1.997391437E1,3.721259534E-1,2.242974281E0,9.247307777E0
1.999391593E1,5.199152231E-1,2.202828169E0,9.135574341E0
2.001391593E1,6.096498966E-1,2.193778276E0,9.060905457E0
2.003391436E1,6.076771021E-1,2.194755077E0,9.065329552E0
2.005391593E1,5.718023777E-1,2.205643892E0,9.103752136E0
2.007391436E1,4.977832437E-1,2.216245413E0,9.135842323E0
2.009391436E1,4.373344481E-1,2.270775795E0,9.155168533E0
2.011391593E1,3.651923537E-1,2.309992790E0,9.133275986E0
2.013391593E1,3.145789504E-1,2.343128443E0,9.130909920E0
2.015391593E1,3.034219444E-1,2.337123871E0,9.146041870E0
2.017391436E1,2.865380347E-1,2.319780350E0,9.130383492E0
2.019391593E1,2.594165206E-1,2.319253445E0,9.139032364E0
2.021391593E1,3.516220152E-1,2.288109779E0,9.118366241E0
2.023391436E1,4.153077900E-1,2.256793499E0,9.131849289E0
2.025391436E1,4.380814433E-1,2.239871264E0,9.182337761E0
2.027391593E1,4.439807534E-1,2.227086306E0,9.190659523E0
2.029391437E1,4.574457407E-1,2.238157034E0,9.175970078E0
2.031391593E1,4.301326871E-1,2.212625265E0,9.154498100E0
2.033391593E1,3.957615197E-1,2.262491703E0,9.110569000E0
2.035391593E1,3.230927289E-1,2.303643227E0,9.088332176E0
2.037391436E1,3.049829900E-1,2.350790024E0,9.100714684E0
2.039391436E1,3.133339584E-1,2.306889772E0,9.145495415E0
2.041391749E1,3.836372793E-1,2.233512402E0,9.166641235E0
2.043391436E1,4.392210841E-1,2.236136436E0,9.150782585E0
2.045391593E1,4.675013721E-1,2.270239353E0,9.114601135E0
2.047391437E1,4.428411126E-1,2.265929937E0,9.090572357E0
2.049391593E1,4.002051651E-1,2.272327185E0,9.115242958E0
2.051391593E1,3.720972240E-1,2.293673754E0,9.128114700E0
2.053391436E1,3.777188361E-1,2.259053707E0,9.143543243E0
2.055391593E1,3.679026067E-1,2.289651632E0,9.153003693E0
2.057391436E1,3.503770530E-1,2.282737255E0,9.157361031E0
2.059391436E1,3.801321685E-1,2.279318333E0,9.139520645E0
2.061391437E1,3.839724660E-1,2.280706882E0,9.131513596E0
2.063391593E1,4.123677015E-1,2.282200813E0,9.124456406E0
2.065391593E1,4.402074814E-1,2.266380072E0,9.135746956E0
2.067391436E1,4.481179118E-1,2.262127876E0,9.145534515E0
2.069391593E1,4.349115193E-1,2.257799149E0,9.149136543E0
2.071391593E1,4.068993628E-1,2.253125668E0,9.150676727E0
2.073391436E1,4.023886621E-1,2.247638226E0,9.132232666E0
2.075391436E1,3.829190135E-1,2.257052183E0,9.111134529E0
2.077391593E1,4.062481225E-1,2.298624992E0,9.137058258E0
2.079391437E1,4.438179433E-1,2.304792643E0,9.139213562E0
2.081391593E1,4.156238139E-1,2.292438507E0,9.146158218E0
2.083391593E1,4.019577205E-1,2.295838118E0,9.143082619E0
2.085391593E1,3.992762268E-1,2.284135342E0,9.138620377E0
2.087391436E1,3.947463930E-1,2.263545275E0,9.104268074E0
2.089391436E1,3.836468756E-1,2.273179531E0,9.118882179E0
2.091391749E1,3.944303393E-1,2.293779135E0,9.134406090E0
2.093391436E1,4.098777473E-1,2.292639494E0,9.147707939E0
2.095391437E1,4.417493343E-1,2.286730766E0,9.147880554E0
2.097391437E1,4.494969845E-1,2.242897749E0,9.145984650E0
2.099391593E1,4.148864150E-1,2.246919870E0,9.129655838E0
2.101391593E1,4.053191841E-1,2.280467510E0,9.116956711E0
2.103391436E1,4.098298550E-1,2.282555103E0,9.117157936E0
2.105391593E1,3.772399724E-1,2.301842928E0,9.134185791E0
2.107391436E1,3.594654202E-1,2.299649715E0,9.130307198E0
2.109391436E1,3.865678012E-1,2.289603710E0,9.134798050E0
2.111391593E1,4.088051319E-1,2.272375107E0,9.137346268E0
2.113391593E1,4.145990908E-1,2.266619444E0,9.138170242E0
2.115391437E1,4.252293706E-1,2.255950928E0,9.128937721E0
2.117391436E1,4.584800303E-1,2.259618759E0,9.127213478E0
2.119391593E1,4.550323784E-1,2.276818752E0,9.128334999E0
2.121391593E1,4.272979498E-1,2.269636154E0,9.127577782E0
2.123391436E1,4.176253676E-1,2.260135889E0,9.117263794E0
2.125391436E1,4.470165968E-1,2.266762972E0,9.142279625E0
2.127391593E1,3.985962570E-1,2.289268494E0,9.127635956E0
2.129391437E1,3.930225670E-1,2.311333418E0,9.121841431E0
2.131391593E1,3.660063744E-1,2.317682981E0,9.136361122E0
2.133391593E1,3.608923852E-1,2.299640179E0,9.132729530E0
2.135391593E1,3.655849993E-1,2.265652180E0,9.137394905E0
2.137391436E1,4.150587916E-1,2.263497353E0,9.141359329E0
2.139391436E1,4.473900795E-1,2.246527195E0,9.133622169E0
2.141391749E1,4.770303071E-1,2.270746946E0,9.131072998E0
2.143391436E1,4.509813786E-1,2.277402878E0,9.130958557E0
2.145391437E1,4.289834797E-1,2.290580511E0,9.142795563E0
2.147391437E1,4.009521604E-1,2.276789904E0,9.142095566E0
2.149391593E1,3.870083094E-1,2.275583267E0,9.139271736E0
2.151391593E1,3.722696304E-1,2.287046671E0,9.110559464E0
2.153391436E1,3.919020593E-1,2.261294603E0,9.115510941E0
2.155391593E1,4.275373816E-1,2.266169310E0,9.132759094E0
2.157391593E1,4.474188089E-1,2.269607306E0,9.139701843E0
2.159391436E1,4.413950145E-1,2.272805929E0,9.141962051E0
2.161391593E1,4.039497077E-1,2.306976080E0,9.136944771E0
2.163391593E1,3.946985006E-1,2.306152344E0,9.140066147E0
2.165391437E1,4.055681825E-1,2.264761448E0,9.149682045E0
2.167391436E1,3.846428394E-1,2.255184650E0,9.144748688E0
2.169391593E1,4.053095877E-1,2.273840189E0,9.137270927E0
2.171391593E1,4.295293391E-1,2.262386322E0,9.136148453E0
2.173391436E1,4.112280607E-1,2.270833254E0,9.138399124E0
2.175391436E1,4.100405574E-1,2.315633535E0,9.120711327E0
2.177391593E1,4.107396603E-1,2.282899857E0,9.116277695E0
2.179391437E1,4.220498502E-1,2.245818615E0,9.139864922E0
2.181391593E1,4.004254341E-1,2.253374577E0,9.162446976E0
2.183391593E1,4.050318599E-1,2.258699417E0,9.151721001E0
2.185391593E1,4.311095178E-1,2.267615318E0,9.131935120E0
2.187391436E1,4.341645241E-1,2.288693905E0,9.110405922E0
2.189391436E1,4.200004339E-1,2.284738779E0,9.121698380E0
2.191391749E1,4.085465670E-1,2.293080091E0,9.134675026E0
2.193391436E1,3.947942555E-1,2.281243086E0,9.148023605E0
2.195391437E1,4.045721889E-1,2.305826902E0,9.147459030E0
2.197391437E1,3.864624500E-1,2.295790434E0,9.136484146E0
2.199391593E1,3.940568566E-1,2.284949303E0,9.126514435E0
2.201391593E1,3.992857933E-1,2.282756329E0,9.127960205E0
2.203391436E1,3.897568583E-1,2.266035318E0,9.134597778E0
2.205391593E1,4.315117300E-1,2.251890182E0,9.135679245E0
2.207391436E1,4.404277503E-1,2.258076906E0,9.151491165E0
2.209391436E1,4.332259893E-1,2.271340847E0,9.139730453E0
2.211391593E1,4.080006778E-1,2.276263237E0,9.117331505E0
2.213391593E1,4.049456716E-1,2.277297497E0,9.121870041E0
2.215391437E1,3.953784406E-1,2.280563116E0,9.145074844E0
2.217391436E1,3.967287838E-1,2.285887957E0,9.138896942E0
2.219391593E1,4.181999862E-1,2.281578302E0,9.121582031E0
2.221391593E1,4.145799577E-1,2.281722069E0,9.113700867E0
2.223391436E1,4.286961555E-1,2.277096510E0,9.135008812E0
2.225391436E1,4.043710828E-1,2.280840874E0,9.134722710E0
2.227391593E1,4.198567569E-1,2.275650263E0,9.148703575E0
2.229391437E1,4.082496762E-1,2.277690172E0,9.147239685E0
2.231391593E1,4.055681825E-1,2.287851095E0,9.124081612E0
2.233391593E1,4.208910763E-1,2.293606758E0,9.125844955E0
2.235391593E1,3.938461542E-1,2.296135187E0,9.139550209E0
2.237391436E1,3.836947381E-1,2.287525654E0,9.155282974E0
2.239391436E1,3.770005703E-1,2.293903589E0,9.123249054E0
2.241391749E1,4.371524751E-1,2.263104677E0,9.121850967E0
2.243391593E1,4.543715715E-1,2.249965429E0,9.129530907E0
2.245391437E1,4.243004024E-1,2.257406473E0,9.105445862E0
2.247391437E1,4.133924246E-1,2.286730766E0,9.155531883E0
2.249391593E1,4.381005764E-1,2.283139467E0,9.167771339E0
2.251391593E1,4.314255416E-1,2.307043076E0,9.119188309E0
2.253391436E1,4.138521254E-1,2.293664217E0,9.077864647E0
2.255391593E1,4.082975686E-1,2.275286436E0,9.097286224E0
2.257391436E1,4.093414247E-1,2.281118631E0,9.149192810E0
2.259391436E1,3.902357221E-1,2.300741434E0,9.181944847E0
2.261391593E1,3.911263645E-1,2.283895969E0,9.157793999E0
2.263391593E1,4.025036097E-1,2.270392656E0,9.112208366E0
2.265391437E1,4.264456034E-1,2.285370827E0,9.088666916E0
2.267391436E1,4.317224324E-1,2.278236151E0,9.106365204E0
2.269391593E1,4.084507823E-1,2.278839350E0,9.148914337E0
2.271391593E1,3.933290243E-1,2.291270018E0,9.162819862E0
2.273391436E1,3.745776415E-1,2.292390585E0,9.147038460E0
2.275391436E1,3.957998455E-1,2.278647900E0,9.120979309E0
2.277391593E1,3.643208742E-1,2.274357557E0,9.123766899E0
2.279391593E1,3.924862444E-1,2.283235073E0,9.131868362E0
2.281391593E1,4.320767820E-1,2.313708544E0,9.118373871E0
2.283391593E1,4.621671140E-1,2.291126490E0,9.115855217E0
2.285391593E1,4.718205333E-1,2.315078020E0,9.126351357E0
2.287391436E1,4.527530968E-1,2.333321810E0,9.147774696E0
2.289391436E1,4.012011588E-1,2.324683666E0,9.140822411E0
2.291391749E1,3.089477718E-1,2.308450937E0,9.131149292E0
2.293391436E1,2.327451259E-1,2.273744583E0,9.113940239E0
2.295391437E1,2.573671043E-1,2.192389488E0,9.104124069E0
2.297391437E1,3.506356180E-1,2.188807726E0,9.169544220E0
2.299391593E1,4.582405984E-1,2.229834795E0,9.204115868E0
2.301391593E1,4.602900445E-1,2.308996677E0,9.180413246E0
2.303391436E1,5.206622481E-1,2.332278013E0,9.120117188E0
2.305391593E1,5.356499553E-1,2.312310219E0,9.054774284E0
2.307391436E1,5.338016152E-1,2.278226376E0,9.056797028E0
2.309391436E1,5.151747465E-1,2.270335197E0,9.116890907E0
2.311391593E1,4.472272694E-1,2.281434774E0,9.185575485E0
2.313391593E1,3.804386258E-1,2.311065435E0,9.194184303E0
2.315391437E1,3.309648633E-1,2.309025526E0,9.157544136E0
2.317391436E1,3.084689379E-1,2.269099712E0,9.114534378E0
2.319391593E1,3.169252574E-1,2.289450407E0,9.077232361E0
2.321391593E1,3.562093079E-1,2.270296812E0,9.089912415E0
2.323391436E1,4.066407681E-1,2.268237829E0,9.110176086E0
2.325391436E1,4.640058577E-1,2.253508806E0,9.148877144E0
2.327391593E1,5.133934617E-1,2.273811579E0,9.180029869E0
2.329391437E1,5.204419494E-1,2.285878420E0,9.154354095E0
2.331391593E1,5.023034811E-1,2.265757561E0,9.106394768E0
2.333391437E1,4.656913579E-1,2.262472630E0,9.098272324E0
2.335391593E1,4.142351747E-1,2.287209511E0,9.117177963E0
2.337391436E1,3.808121383E-1,2.300683975E0,9.156432152E0
2.339391436E1,3.818368614E-1,2.291576624E0,9.128630638E0
2.341391749E1,3.766749501E-1,2.300444603E0,9.122903824E0
2.343391436E1,4.096766114E-1,2.283943892E0,9.123488426E0
2.345391437E1,4.138042331E-1,2.296585321E0,9.160762787E0
2.347391437E1,4.243770242E-1,2.286634922E0,9.140917778E0
2.349391593E1,4.527339339E-1,2.299371958E0,9.123815536E0
2.351391593E1,4.437317550E-1,2.307589054E0,9.117914200E0
2.353391436E1,4.420653880E-1,2.271465302E0,9.124495506E0
2.355391593E1,4.495831728E-1,2.292974710E0,9.140516281E0
2.357391436E1,4.610849321E-1,2.288157701E0,9.137757301E0
2.359391436E1,4.342602789E-1,2.278801203E0,9.111469269E0
2.361391593E1,4.173955321E-1,2.277766705E0,9.131294250E0
2.363391593E1,4.169166982E-1,2.262893915E0,9.140927315E0
2.365391437E1,4.198471904E-1,2.291250944E0,9.134645462E0
2.367391436E1,4.421515763E-1,2.308642387E0,9.114812851E0
2.369391593E1,4.403607249E-1,2.297610044E0,9.113634109E0
2.371391593E1,4.310520589E-1,2.284164190E0,9.130642891E0
2.373391436E1,4.204218090E-1,2.292275667E0,9.139692307E0
2.375391436E1,4.157578945E-1,2.287899017E0,9.126600266E0
2.377391593E1,3.981174231E-1,2.308412552E0,9.145514488E0
2.379391437E1,3.999370039E-1,2.270986319E0,9.129570007E0
2.381391593E1,4.082113802E-1,2.273447752E0,9.154507637E0
2.383391437E1,4.297783375E-1,2.271254539E0,9.128755569E0
2.385391593E1,4.558081031E-1,2.291796923E0,9.145639420E0
2.387391436E1,4.535958469E-1,2.320469856E0,9.115807533E0
2.389391436E1,4.657584131E-1,2.331253290E0,9.134396553E0
2.391391749E1,4.441626966E-1,2.299582720E0,9.132098198E0
2.393391437E1,4.272883832E-1,2.268563509E0,9.116488457E0
2.395391437E1,3.873626590E-1,2.275114059E0,9.139875412E0
2.397391437E1,3.688794374E-1,2.300866127E0,9.130653381E0
2.399391593E1,3.566211164E-1,2.303528309E0,9.143158913E0
2.401391593E1,3.960200846E-1,2.294162273E0,9.122779846E0
2.403391436E1,4.208336174E-1,2.290178299E0,9.116267204E0
2.405391593E1,4.848258197E-1,2.252905369E0,9.138303757E0
2.407391436E1,4.875839353E-1,2.276933670E0,9.141818047E0
2.409391436E1,4.589684606E-1,2.285207987E0,9.139826775E0
2.411391593E1,4.560571015E-1,2.313469172E0,9.120672226E0
2.413391593E1,4.180563390E-1,2.307464361E0,9.122779846E0
2.415391437E1,3.851217031E-1,2.308757305E0,9.127520561E0
2.417391436E1,3.665331006E-1,2.312195301E0,9.130278587E0
2.419391593E1,3.817889690E-1,2.293396235E0,9.138437271E0
2.421391749E1,3.986154199E-1,2.296930075E0,9.126055717E0
2.423391436E1,4.319235384E-1,2.277058125E0,9.132968903E0
2.425391436E1,4.214943945E-1,2.274328709E0,9.159852982E0
2.427391593E1,4.494682550E-1,2.273265600E0,9.158539772E0
2.429391437E1,4.275661111E-1,2.292515039E0,9.151636124E0
2.431391593E1,4.343847930E-1,2.300463915E0,9.126438141E0
2.433391437E1,4.207569957E-1,2.303269863E0,9.104296684E0
2.435391593E1,4.313297868E-1,2.291327477E0,9.120682716E0
2.437391436E1,4.174721539E-1,2.299199581E0,9.146252632E0
2.439391436E1,4.174338281E-1,2.288703442E0,9.151999474E0
2.441391749E1,4.328333437E-1,2.295244455E0,9.151442528E0
2.443391437E1,4.297496080E-1,2.290322065E0,9.113336563E0
2.445391593E1,4.299124181E-1,2.282871246E0,9.128583908E0
2.447391437E1,4.234768152E-1,2.292064905E0,9.124033928E0
2.449391593E1,4.386751950E-1,2.308240175E0,9.137183189E0
2.451391593E1,4.334079623E-1,2.299994469E0,9.126438141E0
2.453391436E1,4.405809641E-1,2.268189907E0,9.135555267E0
2.455391593E1,4.331398010E-1,2.284231186E0,9.139386177E0
2.457391436E1,4.503876269E-1,2.283579826E0,9.136417389E0
2.459391436E1,4.474954307E-1,2.302896261E0,9.149777412E0
2.461391593E1,4.398052692E-1,2.292352200E0,9.150073051E0
2.463391593E1,4.131146967E-1,2.289938927E0,9.105053902E0
2.465391593E1,4.120516777E-1,2.297734499E0,9.105157852E0
2.467391436E1,4.176828265E-1,2.285341978E0,9.117473602E0
2.469391593E1,4.096766114E-1,2.270756483E0,9.148321152E0
2.471391749E1,4.111706018E-1,2.272039890E0,9.159813881E0
2.473391436E1,4.356776476E-1,2.299879551E0,9.161058426E0
2.475391436E1,4.557985365E-1,2.300760746E0,9.103464127E0
2.477391593E1,4.641303420E-1,2.287736177E0,9.078764915E0
2.479391437E1,4.705372155E-1,2.274759769E0,9.102735519E0
2.481391593E1,4.610562027E-1,2.275219440E0,9.143206596E0
2.483391437E1,4.223946333E-1,2.290360212E0,9.183266640E0
2.485391593E1,4.121665955E-1,2.317702055E0,9.139309883E0
2.487391436E1,4.150587916E-1,2.284096956E0,9.119716644E0
2.489391436E1,4.249420464E-1,2.288559914E0,9.096040726E0
2.491391749E1,4.244249165E-1,2.289048195E0,9.113288879E0
2.493391437E1,4.519390762E-1,2.305778980E0,9.116631508E0
2.495391437E1,4.524274766E-1,2.279002190E0,9.153196335E0
2.497391437E1,4.521210194E-1,2.259848595E0,9.153214455E0
2.499391593E1,4.563443959E-1,2.276215315E0,9.144069672E0
2.501391593E1,4.240801334E-1,2.263823032E0,9.114362717E0
2.503391436E1,4.244440496E-1,2.284786701E0,9.123268127E0
2.505391593E1,4.293665290E-1,2.291451931E0,9.140180588E0
2.507391436E1,4.416535795E-1,2.278006315E0,9.137384415E0
2.509391436E1,4.348444641E-1,2.278130770E0,9.128698349E0
2.511391593E1,4.322491586E-1,2.267797232E0,9.128603935E0
2.513391593E1,4.595622122E-1,2.280639887E0,9.140946388E0
2.515391437E1,4.561720192E-1,2.301057577E0,9.139816284E0
2.517391436E1,4.436072409E-1,2.294880629E0,9.133411407E0
2.519391593E1,4.401500225E-1,2.275334358E0,9.116018295E0
2.521391749E1,4.372865558E-1,2.297111988E0,9.130212784E0
2.523391436E1,4.406384528E-1,2.297820568E0,9.114649773E0
2.525391436E1,4.351221919E-1,2.273131609E0,9.126649857E0
2.527391593E1,4.262636602E-1,2.286079407E0,9.140813828E0
2.529391437E1,4.300847948E-1,2.281405926E0,9.149153709E0
2.531391593E1,4.178647995E-1,2.283733130E0,9.146158218E0
2.533391437E1,4.456758499E-1,2.279117107E0,9.138811111E0
2.535391593E1,4.441722929E-1,2.285131454E0,9.136733055E0
2.537391436E1,4.423431158E-1,2.288895130E0,9.144710541E0
2.539391436E1,4.642835855E-1,2.268994331E0,9.135574341E0
2.541391749E1,4.527626634E-1,2.256716967E0,9.130738258E0
2.543391437E1,4.470836222E-1,2.276081324E0,9.139530182E0
2.545391437E1,4.438083768E-1,2.289642096E0,9.153876305E0
2.547391437E1,4.594855905E-1,2.259839058E0,9.134894371E0
2.549391593E1,4.500332773E-1,2.260020971E0,9.133103371E0
2.551391593E1,4.664479196E-1,2.263133526E0,9.137154579E0
2.553391436E1,4.678078294E-1,2.277106047E0,9.120778084E0
2.555391593E1,4.498321712E-1,2.292285204E0,9.138860703E0
2.557391436E1,4.334558249E-1,2.312051773E0,9.140353203E0
2.559391436E1,4.271543026E-1,2.274999142E0,9.160570145E0
2.561391593E1,4.261295795E-1,2.277546406E0,9.132557869E0
2.563391593E1,4.280449450E-1,2.286970139E0,9.122915268E0
2.565391437E1,4.418259561E-1,2.276655912E0,9.120212555E0
2.567391436E1,4.323161840E-1,2.282813787E0,9.153415680E0
2.569391593E1,4.319331348E-1,2.269789219E0,9.170453072E0
2.571391749E1,4.495544434E-1,2.266648054E0,9.152314186E0
2.573391436E1,4.605582058E-1,2.261265993E0,9.143878937E0
2.575391436E1,4.442488849E-1,2.265767097E0,9.129167557E0
2.577391593E1,4.614775777E-1,2.259072781E0,9.143944740E0
2.579391437E1,4.506749213E-1,2.279356480E0,9.153071404E0
2.581391593E1,4.310999513E-1,2.277948856E0,9.146779060E0
2.583391437E1,4.219253659E-1,2.293903589E0,9.145582199E0
2.585391593E1,4.235821366E-1,2.275133133E0,9.135707855E0
2.587391436E1,4.054436684E-1,2.282593489E0,9.136341095E0
2.589391436E1,4.138329625E-1,2.288780212E0,9.133132935E0
2.591391749E1,4.269244671E-1,2.277441263E0,9.147276878E0
2.593391437E1,4.422186017E-1,2.294746399E0,9.141492844E0
2.595391437E1,4.621671140E-1,2.286826372E0,9.154699326E0
2.597391437E1,4.511346221E-1,2.280093908E0,9.152199745E0
2.599391593E1,4.559517503E-1,2.268266678E0,9.140486717E0
2.601391593E1,4.118984342E-1,2.275851488E0,9.151212692E0
2.603391436E1,4.074452221E-1,2.271532297E0,9.149996758E0
2.605391593E1,4.123772979E-1,2.270967245E0,9.150496483E0
2.607391436E1,4.043710828E-1,2.263363361E0,9.146883965E0
2.609391437E1,4.521880746E-1,2.269176483E0,9.144461632E0
2.611391593E1,4.560762644E-1,2.289757013E0,9.161173820E0
2.613391593E1,4.649443626E-1,2.274616003E0,9.175921440E0
2.615391437E1,4.378515780E-1,2.271283388E0,9.157410622E0
2.617391436E1,4.345763326E-1,2.280745268E0,9.134962082E0
2.619391593E1,4.136797190E-1,2.258402586E0,9.148129463E0
2.621391749E1,4.016512632E-1,2.270852327E0,9.149221420E0
2.623391436E1,3.922659755E-1,2.301306486E0,9.152985573E0
2.625391436E1,4.059129357E-1,2.295244455E0,9.157476425E0
2.627391593E1,4.396520257E-1,2.280611038E0,9.145485878E0
2.629391437E1,4.463270605E-1,2.282995701E0,9.129837990E0
2.631391593E1,4.649922550E-1,2.271972895E0,9.165396690E0
2.633391437E1,4.774325192E-1,2.249735594E0,9.153119087E0
2.635391593E1,4.736592770E-1,2.273916960E0,9.158060074E0
2.637391436E1,4.335994720E-1,2.290341139E0,9.155618668E0
2.639391436E1,3.964797854E-1,2.278599977E0,9.161968231E0
2.641391749E1,4.075888693E-1,2.273629665E0,9.150782585E0
2.643391437E1,4.071100354E-1,2.276550531E0,9.136321068E0
2.645391437E1,4.212741256E-1,2.313181877E0,9.135201454E0
2.647391437E1,4.239460528E-1,2.293549299E0,9.148341179E0
2.649391593E1,4.355531633E-1,2.262252331E0,9.158587456E0
2.651391593E1,4.359745383E-1,2.262606621E0,9.157994270E0
2.653391436E1,4.583842754E-1,2.247130632E0,9.151406288E0
2.655391593E1,4.550802708E-1,2.271235466E0,9.139654160E0
2.657391436E1,4.483860731E-1,2.253096819E0,9.138495445E0
2.659391437E1,4.435114861E-1,2.248720407E0,9.151864052E0
2.661391593E1,4.262636602E-1,2.283953428E0,9.150419235E0
2.663391593E1,4.217721224E-1,2.292974710E0,9.150571823E0
2.665391437E1,4.467388690E-1,2.273840189E0,9.147133827E0
2.667391436E1,4.347391129E-1,2.272662401E0,9.138831139E0
2.669391593E1,4.260625541E-1,2.258670568E0,9.142354965E0
2.671391749E1,4.227776825E-1,2.289278030E0,9.161929131E0
2.673391436E1,4.215614498E-1,2.289709091E0,9.161719322E0
2.675391436E1,4.450916648E-1,2.299486876E0,9.132874489E0
2.677391593E1,4.354478121E-1,2.284863234E0,9.130824089E0
2.679391437E1,4.259667695E-1,2.263985872E0,9.132692337E0
2.681391593E1,4.330440462E-1,2.253901482E0,9.155081749E0
2.683391437E1,4.238502979E-1,2.283120155E0,9.159497261E0
2.685391593E1,4.460014403E-1,2.289584637E0,9.163662910E0
2.687391436E1,4.438371062E-1,2.288722754E0,9.139040947E0
2.689391436E1,4.504833817E-1,2.287630796E0,9.133074760E0
2.691391749E1,4.347391129E-1,2.265096664E0,9.173172951E0
2.693391437E1,4.264551997E-1,2.259005785E0,9.168164253E0
2.695391437E1,4.351509213E-1,2.283666134E0,9.161575317E0
2.697391437E1,4.249899387E-1,2.273083687E0,9.134607315E0
2.699391593E1,4.370854497E-1,2.275822639E0,9.142852783E0
2.701391593E1,4.100788534E-1,2.282919168E0,9.134177208E0
2.703391436E1,4.300369024E-1,2.274549007E0,9.146577835E0
2.705391593E1,4.304104149E-1,2.266083002E0,9.132482529E0
2.707391436E1,4.435210526E-1,2.275209665E0,9.155982018E0
2.709391437E1,4.673385620E-1,2.253958941E0,9.155380249E0
2.711391593E1,4.584895968E-1,2.248289347E0,9.147527695E0
2.713391593E1,4.355052710E-1,2.304208279E0,9.141426086E0
2.715391437E1,4.193779230E-1,2.306353569E0,9.157793999E0
2.717391436E1,4.100501239E-1,2.271407843E0,9.145926476E0
2.719391593E1,3.929842412E-1,2.283685207E0,9.145035744E0
2.721391749E1,3.843076527E-1,2.296546936E0,9.134396553E0
2.723391436E1,3.975428045E-1,2.293807983E0,9.138916969E0
2.725391436E1,4.240992963E-1,2.267950535E0,9.176878929E0
2.727391593E1,4.652125239E-1,2.273706198E0,9.174762726E0
2.729391437E1,4.761588275E-1,2.246374130E0,9.153770447E0
2.731391593E1,4.703552723E-1,2.255290031E0,9.151912689E0
2.733391437E1,4.464324117E-1,2.264301777E0,9.159746170E0
2.735391593E1,4.289259911E-1,2.267988920E0,9.162352562E0
2.737391436E1,4.153939784E-1,2.285073996E0,9.155455589E0
2.739391436E1,3.871902823E-1,2.287132978E0,9.148330688E0
2.741391749E1,3.939898014E-1,2.295024157E0,9.167150497E0
2.743391437E1,4.056160450E-1,2.287085056E0,9.151529312E0
2.745391437E1,4.350551665E-1,2.285638809E0,9.133774757E0
2.747391437E1,4.461929798E-1,2.276100397E0,9.140841484E0
2.749391593E1,4.521306157E-1,2.273437977E0,9.152812004E0
2.751391593E1,4.381771982E-1,2.290819883E0,9.156422615E0
2.753391436E1,4.155376256E-1,2.281511307E0,9.149307251E0
2.755391593E1,4.091211557E-1,2.288636446E0,9.153128624E0
2.757391436E1,4.163325131E-1,2.275841951E0,9.145908356E0
2.759391437E1,4.096957743E-1,2.265479803E0,9.148953438E0
2.761391593E1,4.255166650E-1,2.264598608E0,9.147229195E0
2.763391593E1,4.183149040E-1,2.287161589E0,9.139299393E0
2.765391437E1,4.319139719E-1,2.288023472E0,9.154220581E0
2.767391436E1,4.287440479E-1,2.271628141E0,9.181073189E0
2.769391593E1,4.416631460E-1,2.251545429E0,9.172848701E0
2.771391749E1,4.294718802E-1,2.275458813E0,9.143025398E0
2.773391436E1,4.309179783E-1,2.276445150E0,9.121678352E0
2.775391436E1,4.310903549E-1,2.281415462E0,9.135248184E0
2.777391593E1,4.136605859E-1,2.277201653E0,9.151079178E0
2.779391437E1,4.024365544E-1,2.279873610E0,9.169295311E0
2.781391593E1,4.254687726E-1,2.274041414E0,9.160225868E0
2.783391437E1,4.315404594E-1,2.257521391E0,9.144289017E0
2.785391593E1,4.423622787E-1,2.263535738E0,9.134903908E0
2.787391593E1,4.826039970E-1,2.285179138E0,9.154354095E0
2.789391436E1,4.724813104E-1,2.289594173E0,9.144595146E0
2.791391749E1,4.268191159E-1,2.300502062E0,9.152286530E0
2.793391437E1,4.365682900E-1,2.286146402E0,9.163778305E0
2.795391437E1,4.073973298E-1,2.259877205E0,9.137517929E0
2.797391437E1,3.976673186E-1,2.281817675E0,9.138381004E0
2.799391593E1,4.008085132E-1,2.299956322E0,9.139500618E0
2.801391593E1,4.216093123E-1,2.281386852E0,9.156509399E0
2.803391436E1,4.325843453E-1,2.264541149E0,9.160666466E0
2.805391593E1,4.707191885E-1,2.247379541E0,9.154000282E0
2.807391436E1,4.583651125E-1,2.255970001E0,9.150121689E0
2.809391437E1,4.448713958E-1,2.264799833E0,9.148857117E0
2.811391593E1,4.121187031E-1,2.270335197E0,9.156671524E0
2.813391593E1,3.994102776E-1,2.279184103E0,9.155694962E0
2.815391437E1,3.989506066E-1,2.294564486E0,9.142315865E0
2.817391436E1,3.899579942E-1,2.283005238E0,9.157505989E0
2.819391593E1,4.048403502E-1,2.282631874E0,9.144854546E0
2.821391749E1,4.273554087E-1,2.262252331E0,9.157046318E0
2.823391436E1,4.538161159E-1,2.290743351E0,9.134923935E0
2.825391437E1,4.389624894E-1,2.273763657E0,9.155282974E0
2.827391593E1,4.364725351E-1,2.278216839E0,9.154459953E0
2.829391437E1,4.332259893E-1,2.281961441E0,9.158720970E0
2.831391593E1,4.200004339E-1,2.274472475E0,9.139712334E0
2.833391437E1,4.079623818E-1,2.274903297E0,9.144949913E0
2.835391593E1,4.114674926E-1,2.275736570E0,9.145476341E0
2.837391436E1,4.132679403E-1,2.275679111E0,9.148914337E0
2.839391436E1,4.311765432E-1,2.267174959E0,9.147066116E0
2.841391749E1,4.406480193E-1,2.268668890E0,9.159526825E0
2.843391437E1,4.167921841E-1,2.252120018E0,9.175604820E0
2.845391437E1,4.481754005E-1,2.260988235E0,9.159689903E0
2.847391437E1,4.344613850E-1,2.265939474E0,9.139739990E0
2.849391593E1,4.368364513E-1,2.258814335E0,9.137596130E0
2.851391593E1,4.190618992E-1,2.271407843E0,9.141503334E0
2.853391436E1,4.019768834E-1,2.265115738E0,9.159133911E0
2.855391593E1,4.064109325E-1,2.274635077E0,9.137996674E0
2.857391436E1,4.466143548E-1,2.267816544E0,9.131505013E0
2.859391437E1,4.375163913E-1,2.273936033E0,9.141530991E0
2.861391437E1,4.345284402E-1,2.277000666E0,9.141790390E0
2.863391593E1,4.514698088E-1,2.275429964E0,9.143609047E0
2.865391437E1,4.457907677E-1,2.292275667E0,9.153349876E0
2.867391436E1,4.240992963E-1,2.292189360E0,9.149030685E0
2.869391593E1,4.158728123E-1,2.260509491E0,9.145878792E0
2.871391749E1,4.008947015E-1,2.299046516E0,9.152171135E0
2.873391436E1,4.001572728E-1,2.298730373E0,9.157820702E0
2.875391437E1,3.986249864E-1,2.293061018E0,9.166698456E0
2.877391593E1,4.029058218E-1,2.276627064E0,9.165532112E0
2.879391437E1,4.350551665E-1,2.270689487E0,9.167321205E0
2.881391593E1,4.480508864E-1,2.260365725E0,9.150446892E0
2.883391437E1,4.449384212E-1,2.266312838E0,9.147000313E0
2.885391593E1,4.492096901E-1,2.262367249E0,9.153676033E0
2.887391436E1,4.362139404E-1,2.269827604E0,9.157008171E0
2.889391436E1,4.106917679E-1,2.281559229E0,9.157361031E0
2.891391749E1,4.104332030E-1,2.288282156E0,9.151385307E0
2.893391437E1,4.197801650E-1,2.278053999E0,9.163204193E0
2.895391437E1,4.155184627E-1,2.269894600E0,9.155714989E0
2.897391437E1,4.102607965E-1,2.277786016E0,9.155829430E0
2.899391593E1,4.285237789E-1,2.279758692E0,9.160981178E0
2.901391593E1,4.289355874E-1,2.282545567E0,9.150496483E0
2.903391436E1,4.378611743E-1,2.268400669E0,9.143504143E0
2.905391593E1,4.139287174E-1,2.255931616E0,9.175845146E0
2.907391436E1,4.169454277E-1,2.272403717E0,9.137451172E0
2.909391437E1,4.279108644E-1,2.280189753E0,9.146367073E0
2.911391593E1,4.344230890E-1,2.259274006E0,9.158108711E0
2.913391593E1,4.071674943E-1,2.278705359E0,9.156155586E0
2.915391437E1,4.197514355E-1,2.274347782E0,9.123977661E0
2.917391436E1,4.277384877E-1,2.305156469E0,9.160799980E0
2.919391436E1,4.269531965E-1,2.290360212E0,9.191550255E0
2.921391749E1,4.016225338E-1,2.269961596E0,9.175892830E0
2.923391436E1,4.098777473E-1,2.279260874E0,9.137796402E0
2.925391437E1,4.196173549E-1,2.279586315E0,9.136005402E0
2.927391593E1,4.237641096E-1,2.267490864E0,9.138265610E0
2.929391437E1,4.161409736E-1,2.280390739E0,9.158894539E0
2.931391593E1,4.093797505E-1,2.263420820E0,9.161029816E0
2.933391437E1,4.487595856E-1,2.267165184E0,9.138073921E0
2.935391593E1,4.529063404E-1,2.259551764E0,9.147430420E0
2.937391436E1,4.507898688E-1,2.256956339E0,9.145544052E0
2.939391436E1,4.455417693E-1,2.271101236E0,9.155991554E0
2.941391749E1,3.989218771E-1,2.275813103E0,9.145687103E0
2.943391437E1,4.005978107E-1,2.286979675E0,9.142833710E0
2.945391437E1,3.888470829E-1,2.258737564E0,9.162034988E0
2.947391437E1,3.935684264E-1,2.282679796E0,9.159640312E0
2.949391593E1,4.174529910E-1,2.304984093E0,9.149682045E0
2.951391593E1,4.337239861E-1,2.298318624E0,9.149250031E0
2.953391436E1,4.285716712E-1,2.291614771E0,9.159095764E0
2.955391593E1,4.340974689E-1,2.274117947E0,9.170213699E0
2.957391436E1,4.595813751E-1,2.264320850E0,9.142144203E0
2.959391437E1,4.639483988E-1,2.263842106E0,9.134032249E0
2.961391593E1,4.321055114E-1,2.279442787E0,9.143924713E0
2.963391593E1,4.077612758E-1,2.294392109E0,9.171460152E0
2.965391437E1,4.139095843E-1,2.280534506E0,9.166267395E0
2.967391436E1,4.128274024E-1,2.260988235E0,9.133103371E0
2.969391436E1,4.161888659E-1,2.265613794E0,9.128219604E0
2.971391749E1,4.253538549E-1,2.278494596E0,9.140066147E0
2.973391436E1,4.448043406E-1,2.285734653E0,9.158319473E0
2.975391437E1,4.359553754E-1,2.289843082E0,9.169408798E0
2.977391593E1,4.305157661E-1,2.283962965E0,9.148416519E0
2.979391437E1,4.213124514E-1,2.292495966E0,9.128142357E0
2.981391593E1,4.477444291E-1,2.294363499E0,9.122607231E0
2.983391437E1,4.466047883E-1,2.280343056E0,9.138849258E0
2.985391593E1,4.340017140E-1,2.287247896E0,9.155206680E0
2.987391593E1,4.424101412E-1,2.285830498E0,9.162609100E0
2.989391593E1,4.523125589E-1,2.302436590E0,9.149747849E0
2.991391749E1,4.254496098E-1,2.296719313E0,9.143419266E0
2.993391437E1,4.328237772E-1,2.272193193E0,9.147324562E0
2.995391437E1,4.081060290E-1,2.254705906E0,9.164544106E0
2.997391437E1,4.313489497E-1,2.276885748E0,9.164764404E0
2.999391593E1,4.618031681E-1,2.275889635E0,9.144001961E0
3.001391593E1,4.561241269E-1,2.283407450E0,9.116344452E0
3.003391436E1,4.558272660E-1,2.300616980E0,9.137384415E0
3.005391593E1,4.655956030E-1,2.303691149E0,9.163032532E0
3.007391593E1,4.608837962E-1,2.302369595E0,9.156864166E0
3.009391437E1,4.467484355E-1,2.290408134E0,9.144250870E0
3.011391593E1,4.585183263E-1,2.275190592E0,9.121477127E0
3.013391593E1,4.588918388E-1,2.309935331E0,9.119887352E0
3.015391437E1,4.750766456E-1,2.304016829E0,9.134798050E0
3.017391436E1,4.589205682E-1,2.303873062E0,9.163079262E0
3.019391436E1,4.529159069E-1,2.280946255E0,9.156825066E0
3.021391749E1,4.444021285E-1,2.277412415E0,9.143455505E0
3.023391436E1,4.328908026E-1,2.311965466E0,9.131312370E0
3.025391437E1,4.241375923E-1,2.314398050E0,9.132126808E0
3.027391593E1,4.387326539E-1,2.316773176E0,9.141243935E0
3.029391437E1,4.710256457E-1,2.291959524E0,9.167656898E0
3.031391593E1,4.803726077E-1,2.271513224E0,9.148972511E0
3.033391437E1,4.870476425E-1,2.283187151E0,9.148667336E0
3.035391593E1,4.660744369E-1,2.296307564E0,9.133141518E0
3.037391436E1,4.539501965E-1,2.300320148E0,9.145629883E0
3.039391436E1,4.765610397E-1,2.298759222E0,9.141551018E0
3.041391749E1,4.636132121E-1,2.315384388E0,9.145514488E0
3.043391437E1,4.761205018E-1,2.295541286E0,9.155015945E0
3.045391593E1,4.813111424E-1,2.318401098E0,9.143014908E0
3.047391437E1,4.796160460E-1,2.304246664E0,9.140927315E0
3.049391593E1,4.669842422E-1,2.287573338E0,9.133754730E0
3.051391593E1,4.367789924E-1,2.283637285E0,9.141234398E0
3.053391436E1,4.728548229E-1,2.310404539E0,9.154622078E0
3.055391593E1,4.934162199E-1,2.292524576E0,9.156920433E0
3.057391593E1,4.724525809E-1,2.285045147E0,9.129828453E0
3.059391437E1,4.570243657E-1,2.292926788E0,9.150676727E0
3.061391593E1,4.695412517E-1,2.297552586E0,9.153664589E0
3.063391593E1,5.001103878E-1,2.300301075E0,9.153388023E0
3.065391593E1,4.693113863E-1,2.293491840E0,9.140985489E0
3.067391436E1,4.627321362E-1,2.307723045E0,9.167780876E0
3.069391436E1,4.561911821E-1,2.282775402E0,9.160676003E0
3.071391749E1,4.714949131E-1,2.310452461E0,9.133419037E0
3.073391436E1,4.784189463E-1,2.290024996E0,9.132596970E0
3.075391437E1,4.690528214E-1,2.286529541E0,9.146407127E0
3.077391593E1,4.745211899E-1,2.285389900E0,9.161269188E0
3.079391437E1,5.139009953E-1,2.297839880E0,9.151079178E0
3.081391593E1,5.104820728E-1,2.289057732E0,9.108040810E0
3.083391437E1,5.223860741E-1,2.295550823E0,9.113174438E0
3.085391593E1,5.259199142E-1,2.312252760E0,9.133399963E0
3.087391436E1,5.219646692E-1,2.331856489E0,9.180221558E0
3.089391436E1,4.770398736E-1,2.292266130E0,9.162532806E0
3.091391749E1,4.372578263E-1,2.273620129E0,9.135181427E0
3.093391437E1,4.504067898E-1,2.308450937E0,9.124838829E0
3.095391437E1,4.686889052E-1,2.337985754E0,9.127156258E0
3.097391437E1,4.243865907E-1,2.351460218E0,9.115138054E0
3.099391593E1,4.073207378E-1,2.329366684E0,9.168452263E0
3.101391593E1,4.586236775E-1,2.292381048E0,9.180891991E0
3.103391593E1,5.089689493E-1,2.231663942E0,9.142469406E0
3.105391593E1,5.725780725E-1,2.227210760E0,9.125884056E0
3.107391593E1,6.154342890E-1,2.214952469E0,9.119791985E0
3.109391437E1,6.297516227E-1,2.265039206E0,9.139261246E0
3.111391593E1,5.633173585E-1,2.317328691E0,9.149969101E0
3.113391593E1,4.414141476E-1,2.359342098E0,9.175251007E0
3.115391437E1,3.052798510E-1,2.344766140E0,9.184463501E0
3.117391436E1,2.729677260E-1,2.315614223E0,9.147573471E0
3.119391436E1,3.882533014E-1,2.332201242E0,9.085028648E0
3.121391749E1,4.926404953E-1,2.298902750E0,9.085527420E0
3.123391436E1,5.449777246E-1,2.310213089E0,9.143675804E0
3.125391437E1,5.927085280E-1,2.252972364E0,9.181016922E0
3.127391593E1,6.096498966E-1,2.243041277E0,9.192213058E0
3.129391437E1,5.613349080E-1,2.276531458E0,9.134991646E0
3.131391593E1,4.458961189E-1,2.357196808E0,9.127031326E0
3.133391437E1,3.192332685E-1,2.362598181E0,9.142335892E0
3.135391593E1,2.648657262E-1,2.344363928E0,9.179791451E0
3.137391593E1,3.358873427E-1,2.310155630E0,9.128353119E0
3.139391436E1,4.752777517E-1,2.287142515E0,9.096194267E0
3.141391749E1,5.551674962E-1,2.265776634E0,9.123728752E0
3.143391437E1,5.875083208E-1,2.248854399E0,9.160158157E0
3.145391437E1,5.371247530E-1,2.265977859E0,9.200657845E0
3.147391437E1,4.834850729E-1,2.245885611E0,9.165147781E0
3.149391593E1,4.723663926E-1,2.277096510E0,9.119246483E0
3.151391593E1,4.808514416E-1,2.286175251E0,9.089549065E0
3.153391436E1,4.471219480E-1,2.286768913E0,9.090889931E0
3.155391749E1,4.443638027E-1,2.334777594E0,9.141694069E0
3.157391593E1,4.201536477E-1,2.306976080E0,9.185441017E0
3.159391437E1,4.249420464E-1,2.275621653E0,9.191484451E0
3.161391437E1,4.371429086E-1,2.277728558E0,9.136522293E0
3.163391593E1,4.387613833E-1,2.284729242E0,9.103502274E0
3.165391437E1,4.508281648E-1,2.292946100E0,9.106087685E0
3.167391436E1,4.655860066E-1,2.313143492E0,9.136341095E0
3.169391436E1,4.749234021E-1,2.305731058E0,9.179493904E0
3.171391749E1,4.805545807E-1,2.300023317E0,9.163538933E0
3.173391593E1,4.545439482E-1,2.293281317E0,9.146175385E0
3.175391437E1,4.068323076E-1,2.297245979E0,9.129273415E0
3.177391593E1,3.827275038E-1,2.315058947E0,9.107131958E0
3.179391437E1,3.783221543E-1,2.313699007E0,9.137470245E0
3.181391593E1,3.738210499E-1,2.318535328E0,9.123450279E0
3.183391437E1,4.244249165E-1,2.312568903E0,9.171803474E0
3.185391593E1,4.889342785E-1,2.267787695E0,9.156078339E0
3.187391593E1,5.385134220E-1,2.267280102E0,9.145045280E0
3.189391436E1,5.170517564E-1,2.272413254E0,9.145955086E0
3.191391749E1,4.821251631E-1,2.286338091E0,9.120203018E0
3.193391437E1,4.467101395E-1,2.286060333E0,9.103884697E0
3.195391437E1,4.256603122E-1,2.298366547E0,9.109333992E0
3.197391437E1,4.063151777E-1,2.288540602E0,9.147113800E0
3.199391593E1,4.112855196E-1,2.292946100E0,9.171622276E0
3.201391593E1,4.267233312E-1,2.297610044E0,9.171486855E0
3.203391436E1,4.383017123E-1,2.296642780E0,9.129073143E0
3.205391593E1,4.417397678E-1,2.293147087E0,9.104363441E0
3.207391593E1,4.615446031E-1,2.272308111E0,9.101155281E0
3.209391436E1,4.667448103E-1,2.269281626E0,9.117263794E0
3.211391593E1,4.587673247E-1,2.291988373E0,9.148550987E0
3.213391593E1,4.717726409E-1,2.279528856E0,9.176103592E0
3.215391436E1,4.429177046E-1,2.288914204E0,9.167847633E0
3.217391436E1,4.398531318E-1,2.311984777E0,9.136436462E0
3.219391437E1,4.426783025E-1,2.295253992E0,9.102515221E0
3.221391749E1,4.309754372E-1,2.295186996E0,9.107887268E0
3.223391437E1,4.379569292E-1,2.301728010E0,9.124791145E0
3.225391436E1,4.355052710E-1,2.273485899E0,9.136351585E0
3.227391593E1,4.797788560E-1,2.278475523E0,9.148628235E0
3.229391436E1,4.734677374E-1,2.296997070E0,9.135153770E0
3.231391593E1,4.660552740E-1,2.294535875E0,9.132443428E0
3.233391437E1,4.810429811E-1,2.294861317E0,9.120519638E0
3.235391593E1,4.378515780E-1,2.294478416E0,9.114926338E0
3.237391437E1,4.336186349E-1,2.301699162E0,9.135171890E0
3.239391436E1,4.161218107E-1,2.288904667E0,9.134807587E0
3.241391749E1,4.273458421E-1,2.276014328E0,9.166181564E0
3.243391436E1,4.427836537E-1,2.274357557E0,9.164631844E0
3.245391436E1,4.500045478E-1,2.298941135E0,9.152802467E0
3.247391436E1,4.481849670E-1,2.310395002E0,9.114209175E0
3.249391593E1,4.586811364E-1,2.294602871E0,9.087202072E0
3.251391749E1,4.736305475E-1,2.276761293E0,9.105695724E0
3.253391436E1,4.665149748E-1,2.279787540E0,9.159870148E0
3.255391593E1,4.529063404E-1,2.271877050E0,9.192748070E0
3.257391593E1,4.407725036E-1,2.272451639E0,9.168614388E0
3.259391436E1,4.427932203E-1,2.285859108E0,9.104957581E0
3.261391593E1,4.406097233E-1,2.302455902E0,9.083487511E0
3.263391593E1,4.406480193E-1,2.304342508E0,9.115022659E0
3.265391436E1,4.418259561E-1,2.287152052E0,9.170434952E0
3.267391436E1,4.543811679E-1,2.269923449E0,9.174848557E0
3.269391437E1,4.479934275E-1,2.280860186E0,9.135211945E0
3.271391749E1,4.600985050E-1,2.250511169E0,9.113212585E0
3.273391437E1,4.433486760E-1,2.292687416E0,9.118078232E0
3.275391436E1,4.521306157E-1,2.282411575E0,9.137825012E0
3.277391593E1,4.573882818E-1,2.286491156E0,9.166707993E0
3.279391436E1,4.743104875E-1,2.283330917E0,9.140803337E0
3.281391593E1,4.599835873E-1,2.275401354E0,9.135181427E0
3.283391437E1,4.628566206E-1,2.275727034E0,9.125204086E0
3.285391593E1,4.326130748E-1,2.287343502E0,9.155514717E0
3.287391593E1,4.290696681E-1,2.277106047E0,9.162073135E0
3.289391436E1,4.216093123E-1,2.310586452E0,9.164649010E0
3.291391749E1,4.468346238E-1,2.275717258E0,9.138744354E0
3.293391436E1,4.394030273E-1,2.279040575E0,9.124130249E0
3.295391436E1,4.174912870E-1,2.293434381E0,9.130604744E0
3.297391436E1,4.158345163E-1,2.281243086E0,9.138190269E0
3.299391593E1,4.439998865E-1,2.292122364E0,9.156250954E0
3.301391593E1,4.490564466E-1,2.281750679E0,9.146683693E0
3.303391436E1,4.830062389E-1,2.266772509E0,9.141770363E0
3.305391593E1,5.054734349E-1,2.250061035E0,9.144318581E0
3.307391593E1,4.711214006E-1,2.287286043E0,9.138504982E0
3.309391436E1,4.329195321E-1,2.290714741E0,9.150034904E0
3.311391593E1,4.327950478E-1,2.293874979E0,9.142594337E0
3.313391593E1,4.109024704E-1,2.295953035E0,9.136474609E0
3.315391436E1,4.072536826E-1,2.295560598E0,9.128076553E0
3.317391436E1,4.197035432E-1,2.283196926E0,9.141962051E0
3.319391437E1,4.389433563E-1,2.278695822E0,9.154825211E0
3.321391749E1,4.668501616E-1,2.281492233E0,9.140975952E0
3.323391437E1,4.788307548E-1,2.287439346E0,9.135133743E0
3.325391436E1,4.703552723E-1,2.275391817E0,9.146453857E0
3.327391593E1,4.574265778E-1,2.269109249E0,9.157745361E0
3.329391436E1,4.522072077E-1,2.283005238E0,9.141454697E0
3.331391593E1,4.474571347E-1,2.267768621E0,9.135727882E0
3.333391437E1,4.452161491E-1,2.287956476E0,9.137211800E0
3.335391593E1,4.229788184E-1,2.269952059E0,9.149336815E0
3.337391593E1,4.259859324E-1,2.296757698E0,9.147928238E0
3.339391436E1,4.430517852E-1,2.284432173E0,9.145420074E0
3.341391749E1,4.432050288E-1,2.286386013E0,9.141665459E0
3.343391436E1,4.630290270E-1,2.274663925E0,9.146751404E0
3.345391436E1,4.572254717E-1,2.262855768E0,9.138801575E0
3.347391436E1,4.697231948E-1,2.278264761E0,9.132068634E0
3.349391593E1,4.434827566E-1,2.277719021E0,9.148877144E0
3.351391593E1,4.286195338E-1,2.286098719E0,9.147210121E0
3.353391436E1,4.288781285E-1,2.292342663E0,9.154767036E0
3.355391593E1,4.146661460E-1,2.287563801E0,9.151892662E0
3.357391593E1,4.045721889E-1,2.277872086E0,9.141435623E0
3.359391436E1,4.184681475E-1,2.291346788E0,9.143915176E0
3.361391436E1,4.436359704E-1,2.297188520E0,9.133123398E0
3.363391593E1,4.516230226E-1,2.295091152E0,9.150532722E0
3.365391436E1,4.932534099E-1,2.250999689E0,9.172291756E0
3.367391436E1,4.779017866E-1,2.244659662E0,9.179110527E0
3.369391437E1,4.558368325E-1,2.266370296E0,9.162073135E0
3.371391749E1,4.547833800E-1,2.281559229E0,9.142364502E0
3.373391437E1,4.374110699E-1,2.287075520E0,9.127031326E0
3.375391436E1,4.155088961E-1,2.286357164E0,9.138945580E0
3.377391593E1,3.828998804E-1,2.269645691E0,9.164802551E0
3.379391436E1,4.195886254E-1,2.286146402E0,9.177942276E0
3.381391593E1,4.482903183E-1,2.277249575E0,9.140774727E0
3.383391437E1,5.020736456E-1,2.273993492E0,9.113288879E0
3.385391593E1,5.137860775E-1,2.255347490E0,9.116843224E0
3.387391437E1,4.805449843E-1,2.280180216E0,9.137596130E0
3.389391436E1,4.541130066E-1,2.314675808E0,9.138753891E0
3.391391749E1,4.159302711E-1,2.275497198E0,9.166536331E0
3.393391436E1,3.952252269E-1,2.278408527E0,9.146175385E0
3.395391436E1,3.696647286E-1,2.291222095E0,9.158645630E0
3.397391436E1,3.866443932E-1,2.283244610E0,9.149939537E0
3.399391593E1,4.264360368E-1,2.310634375E0,9.167016029E0
3.401391593E1,4.352371097E-1,2.295914888E0,9.169936180E0
3.403391436E1,4.405713975E-1,2.279998302E0,9.138648033E0
3.405391593E1,4.598016143E-1,2.267653704E0,9.147239685E0
3.407391593E1,4.329195321E-1,2.251382589E0,9.144883156E0
3.409391436E1,4.331398010E-1,2.266044855E0,9.152487755E0
3.411391593E1,4.230937362E-1,2.257665157E0,9.151309967E0
3.413391593E1,4.290888011E-1,2.273227453E0,9.140066147E0
3.415391437E1,4.156334102E-1,2.296949148E0,9.150887489E0
3.417391436E1,4.207091033E-1,2.291442394E0,9.137211800E0
3.419391437E1,4.160739183E-1,2.264464617E0,9.157083511E0
3.421391749E1,4.054532647E-1,2.270699024E0,9.139816284E0
3.423391437E1,4.148672521E-1,2.277699709E0,9.141503334E0
3.425391436E1,4.052617252E-1,2.273227453E0,9.145831108E0
3.427391593E1,4.023312032E-1,2.285255909E0,9.152611732E0
3.429391436E1,4.162558913E-1,2.279490709E0,9.149613380E0
3.431391593E1,4.322874546E-1,2.272221804E0,9.147239685E0
3.433391437E1,4.431954324E-1,2.281779528E0,9.134185791E0
3.435391593E1,4.387996793E-1,2.275564194E0,9.131457329E0
3.437391437E1,4.300464988E-1,2.256745815E0,9.143302917E0
3.439391436E1,3.986824453E-1,2.261764050E0,9.154326439E0
3.441391749E1,4.114483297E-1,2.246460199E0,9.149978638E0
3.443391436E1,4.150779545E-1,2.301067114E0,9.153951645E0
3.445391436E1,4.240514040E-1,2.290168762E0,9.163509369E0
3.447391436E1,4.317894578E-1,2.263085604E0,9.166077614E0
3.449391593E1,4.201057553E-1,2.275334358E0,9.150676727E0
3.451391593E1,4.160260558E-1,2.289440870E0,9.129589081E0
3.453391593E1,4.275565147E-1,2.266600132E0,9.137041092E0
3.455391593E1,4.239364862E-1,2.272011042E0,9.142785072E0
3.457391593E1,3.959530592E-1,2.286864758E0,9.164181709E0
3.459391436E1,4.120325148E-1,2.261850119E0,9.149202347E0
3.461391593E1,4.255262315E-1,2.257262945E0,9.139462471E0
3.463391593E1,4.286961555E-1,2.268094301E0,9.128257751E0
3.465391437E1,4.621766806E-1,2.248863935E0,9.127577782E0
3.467391436E1,4.483190477E-1,2.271398306E0,9.142431259E0
3.469391437E1,4.291271269E-1,2.280601501E0,9.142230034E0
3.471391749E1,3.992953598E-1,2.272317648E0,9.161154747E0
3.473391437E1,4.037677348E-1,2.288100243E0,9.153032303E0
3.475391436E1,3.949666619E-1,2.268218756E0,9.141839027E0
3.477391593E1,3.921223283E-1,2.283225536E0,9.131582260E0
3.479391436E1,3.802662492E-1,2.282076359E0,9.136456490E0
3.481391593E1,3.852845132E-1,2.283733130E0,9.153204918E0
3.483391437E1,4.047828615E-1,2.267701626E0,9.148292542E0
3.485391593E1,4.034995735E-1,2.253068209E0,9.162878036E0
3.487391437E1,4.098394215E-1,2.256755352E0,9.141340256E0
3.489391436E1,4.345284402E-1,2.233857155E0,9.150792122E0
3.491391749E1,4.303050637E-1,2.236931324E0,9.155505180E0
3.493391436E1,4.126645923E-1,2.276981592E0,9.138180733E0
3.495391436E1,4.068323076E-1,2.269894600E0,9.146214485E0
3.497391436E1,4.122432172E-1,2.291193485E0,9.134722710E0
3.499391593E1,3.999178708E-1,2.291384935E0,9.129426003E0
3.501391593E1,4.198759198E-1,2.285332441E0,9.130469322E0
3.503391436E1,3.981748819E-1,2.281789064E0,9.152372360E0
3.505391437E1,4.067940116E-1,2.277230501E0,9.154344559E0
3.507391593E1,3.900824785E-1,2.272125959E0,9.142335892E0
3.509391436E1,4.029153883E-1,2.266303301E0,9.132825851E0
3.511391749E1,4.359074831E-1,2.258402586E0,9.140650749E0
3.513391593E1,4.355244339E-1,2.249275684E0,9.134588242E0
3.515391437E1,4.409449100E-1,2.253068209E0,9.146214485E0
3.517391436E1,4.237353802E-1,2.289536715E0,9.145888329E0
3.519391437E1,4.102225006E-1,2.298557997E0,9.126859665E0
3.521391749E1,3.901591003E-1,2.301421404E0,9.155360222E0
3.523391437E1,3.711108267E-1,2.286414623E0,9.170376778E0
3.525391436E1,3.586513996E-1,2.249285460E0,9.158568382E0
3.527391593E1,3.790883124E-1,2.247389078E0,9.142095566E0
3.529391436E1,4.241375923E-1,2.260126352E0,9.143034935E0
3.531391593E1,4.319905937E-1,2.250855923E0,9.139224052E0
3.533391437E1,4.170986414E-1,2.269358397E0,9.153827667E0
3.535391593E1,4.308700860E-1,2.286031485E0,9.154708862E0
3.537391437E1,4.246260226E-1,2.264416695E0,9.145524979E0
3.539391436E1,4.284280241E-1,2.285207987E0,9.135690689E0
3.541391749E1,4.091403186E-1,2.273083687E0,9.135316849E0
3.543391436E1,3.987207711E-1,2.278705359E0,9.141856194E0
3.545391436E1,3.903027475E-1,2.287314892E0,9.156069756E0
3.547391436E1,3.917680085E-1,2.295225382E0,9.159956932E0
3.549391593E1,3.832542300E-1,2.260519028E0,9.147669792E0
3.551391593E1,3.855143487E-1,2.266389608E0,9.140496254E0
3.553391436E1,4.031739831E-1,2.289632559E0,9.130326271E0
3.555391437E1,4.041603804E-1,2.287219048E0,9.109650612E0
3.557391593E1,4.135935307E-1,2.251861572E0,9.140019417E0
3.559391436E1,4.067269564E-1,2.265221119E0,9.149652481E0
3.561391593E1,4.207091033E-1,2.277642250E0,9.170606613E0
3.563391593E1,4.000519216E-1,2.271503448E0,9.153646469E0
3.565391437E1,3.960967064E-1,2.255270958E0,9.125806808E0
3.567391436E1,3.878702223E-1,2.289757013E0,9.138906479E0
3.569391437E1,4.223754704E-1,2.291634083E0,9.134347916E0
3.571391749E1,4.036815464E-1,2.285495281E0,9.141829491E0
3.573391437E1,4.082592428E-1,2.278485060E0,9.157639503E0
3.575391436E1,4.203164577E-1,2.266178846E0,9.148676872E0
3.577391593E1,4.120899737E-1,2.255586863E0,9.144413948E0
3.579391436E1,4.112280607E-1,2.269569159E0,9.145390511E0
3.581391593E1,3.934726715E-1,2.279011726E0,9.153550148E0
3.583391437E1,3.890385926E-1,2.265747786E0,9.151423454E0
3.585391593E1,3.841161430E-1,2.263286591E0,9.139299393E0
3.587391437E1,3.801417649E-1,2.267423868E0,9.132528305E0
3.589391436E1,3.853323758E-1,2.254188776E0,9.160329819E0
3.591391749E1,4.088338614E-1,2.262961149E0,9.153157234E0
3.593391593E1,3.971597254E-1,2.288224697E0,9.155015945E0
3.595391436E1,4.113334119E-1,2.271216154E0,9.168653488E0
3.597391436E1,4.142926335E-1,2.272020817E0,9.175298691E0
3.599391593E1,4.294144213E-1,2.274606466E0,9.156194687E0
3.601391593E1,4.254017472E-1,2.296154261E0,9.130259514E0
3.603391436E1,4.061715007E-1,2.269444466E0,9.131523132E0
3.605391437E1,3.934056163E-1,2.251832724E0,9.155217171E0
3.607391593E1,3.747978806E-1,2.252369165E0,9.162343025E0
3.609391436E1,4.066694975E-1,2.257224560E0,9.158338547E0
3.611391593E1,4.095329642E-1,2.253010750E0,9.127060890E0
3.613391593E1,4.297687709E-1,2.255050659E0,9.143857956E0
3.615391437E1,4.330536127E-1,2.254361153E0,9.153388023E0
3.617391436E1,4.451107979E-1,2.277556181E0,9.157610893E0
3.619391437E1,4.030686319E-1,2.289709091E0,9.151979446E0
3.621391749E1,3.941334784E-1,2.284336567E0,9.144385338E0
3.623391437E1,4.059608281E-1,2.265259504E0,9.159210205E0
3.625391436E1,3.763876557E-1,2.259264469E0,9.162629128E0
3.627391593E1,3.673662841E-1,2.283416986E0,9.152716637E0
3.629391436E1,3.661404550E-1,2.286500931E0,9.155350685E0
3.631391593E1,3.912700117E-1,2.260959387E0,9.147038460E0
3.633391437E1,4.059225023E-1,2.243491411E0,9.161566734E0
3.635391749E1,4.307743311E-1,2.229394436E0,9.156480789E0
3.637391437E1,4.459248483E-1,2.244132996E0,9.146608353E0
3.639391436E1,4.306689799E-1,2.260365725E0,9.156241417E0
3.641391749E1,4.229404926E-1,2.258239746E0,9.169256210E0
3.643391593E1,3.949474990E-1,2.272279263E0,9.145476341E0
3.645391436E1,4.072345495E-1,2.266753435E0,9.139452934E0
3.647391436E1,4.012107253E-1,2.276847363E0,9.138687134E0
3.649391593E1,3.868455291E-1,2.269128561E0,9.151251793E0
3.651391593E1,4.104140401E-1,2.267127037E0,9.161203384E0
3.653392062E1,4.247983992E-1,2.273399830E0,9.163624763E0
3.655391593E1,4.198950827E-1,2.275420427E0,9.149221420E0
3.657391593E1,4.105002284E-1,2.261122227E0,9.137557030E0
3.659391436E1,4.190427363E-1,2.269138098E0,9.140516281E0
3.661391593E1,4.118888676E-1,2.262463093E0,9.156298637E0
3.663391593E1,4.017757475E-1,2.260978699E0,9.149622917E0
3.665391437E1,4.029632807E-1,2.264550686E0,9.148655891E0
3.667391436E1,4.036911130E-1,2.291557312E0,9.166229248E0
3.669391437E1,3.880426288E-1,2.283034086E0,9.149852753E0
3.671391749E1,3.984143138E-1,2.260231733E0,9.172569275E0
3.673391437E1,3.984143138E-1,2.286069870E0,9.153589249E0
3.675391436E1,4.205079973E-1,2.281980515E0,9.142498970E0
3.677391593E1,4.203356206E-1,2.264761448E0,9.133697510E0
3.679391436E1,3.998125196E-1,2.275707722E0,9.155149460E0
3.681391593E1,3.782646954E-1,2.268362284E0,9.159400940E0
3.683391437E1,4.216667712E-1,2.232928276E0,9.159086227E0
3.685391593E1,4.103948772E-1,2.244391680E0,9.132787704E0
3.687391437E1,4.304678738E-1,2.235255241E0,9.140861511E0
3.689391436E1,4.314734340E-1,2.260969162E0,9.140009880E0
3.691391749E1,4.503301680E-1,2.280601501E0,9.152726173E0
3.693391593E1,4.261678755E-1,2.318506479E0,9.159640312E0
3.695391436E1,4.005307853E-1,2.262012959E0,9.166257858E0
3.697391436E1,3.856867254E-1,2.265269041E0,9.159995079E0
3.699391593E1,3.599825799E-1,2.288119316E0,9.141885757E0
3.701391593E1,3.714364469E-1,2.303413391E0,9.125815392E0
3.703391436E1,4.020056129E-1,2.292189360E0,9.146184921E0
3.705391437E1,4.060661793E-1,2.281702757E0,9.159038544E0
3.707391593E1,4.330344498E-1,2.255443335E0,9.168269157E0
3.709391436E1,4.262157679E-1,2.259226084E0,9.171373367E0
3.711391593E1,4.030877948E-1,2.264751911E0,9.157620430E0
3.713391593E1,3.917201161E-1,2.250271797E0,9.143178940E0
3.715391437E1,4.054341018E-1,2.268515587E0,9.146751404E0
3.717391436E1,4.115249515E-1,2.264751911E0,9.152266502E0
3.719391437E1,4.149342775E-1,2.256209373E0,9.158319473E0
3.721391749E1,4.354478121E-1,2.280036449E0,9.167934418E0
3.723391593E1,4.581831396E-1,2.287142515E0,9.157121658E0
3.725391436E1,4.382442236E-1,2.262300253E0,9.142910004E0
3.727391593E1,4.175870717E-1,2.275832176E0,9.140151978E0
3.729391436E1,3.791649044E-1,2.260844469E0,9.160770416E0
3.731391593E1,3.776517808E-1,2.275717258E0,9.154786110E0
3.733391437E1,4.035378993E-1,2.277881622E0,9.163482666E0
3.735391593E1,4.473996758E-1,2.276368618E0,9.162907600E0
3.737391437E1,4.396232963E-1,2.282842398E0,9.136302948E0
3.739391436E1,4.435114861E-1,2.282296658E0,9.148217201E0
3.741391749E1,4.332642853E-1,2.263420820E0,9.165435791E0
3.743391593E1,4.220498502E-1,2.234613657E0,9.173316002E0
3.745391436E1,3.964606225E-1,2.269674301E0,9.197431564E0
3.747391436E1,3.969394863E-1,2.279653311E0,9.150532722E0
3.749391593E1,4.073015749E-1,2.266447067E0,9.113336563E0
3.751391593E1,3.996688724E-1,2.285351515E0,9.107007027E0
3.753391436E1,4.320288897E-1,2.271618366E0,9.133334160E0
3.755391437E1,4.614584148E-1,2.249170542E0,9.166574478E0
3.757391593E1,4.431571364E-1,2.258795023E0,9.191378593E0
3.759391436E1,4.331589639E-1,2.251105070E0,9.188017845E0
3.761391593E1,4.256794751E-1,2.260260344E0,9.119543076E0
3.763391593E1,4.108545780E-1,2.302427053E0,9.082605362E0
3.765391437E1,4.396424592E-1,2.284939766E0,9.111986160E0
3.767391436E1,4.358787537E-1,2.235408545E0,9.177109718E0
3.769391437E1,4.291654229E-1,2.233445406E0,9.199251175E0
3.771391749E1,4.272883832E-1,2.263296127E0,9.173555374E0
3.773391593E1,4.082688391E-1,2.269616842E0,9.115990639E0
3.775391436E1,4.077900052E-1,2.288933277E0,9.108902931E0
3.777391749E1,4.075026810E-1,2.272030354E0,9.134482384E0
3.779391436E1,4.269819260E-1,2.230217934E0,9.171056747E0
3.781391593E1,4.586332440E-1,2.258823872E0,9.178343773E0
3.783391437E1,4.634504020E-1,2.252723455E0,9.154258728E0
3.785391593E1,4.477539957E-1,2.250980377E0,9.150218010E0
3.787391437E1,4.287153184E-1,2.263372898E0,9.127539635E0
3.789391436E1,4.129327238E-1,2.267921925E0,9.134415627E0
3.791391749E1,4.227872789E-1,2.279548168E0,9.137231827E0
3.793391593E1,4.259188771E-1,2.272882700E0,9.144280434E0
3.795391436E1,4.307264388E-1,2.260739326E0,9.148464203E0
3.797391436E1,4.357734323E-1,2.257732153E0,9.151567459E0
3.799391593E1,4.282556176E-1,2.268783808E0,9.138620377E0
3.801391593E1,4.175966382E-1,2.248710871E0,9.137815475E0
3.803391436E1,3.973225355E-1,2.268496513E0,9.144969940E0
3.805391437E1,4.220498502E-1,2.273735046E0,9.134473801E0
3.807391593E1,4.443255067E-1,2.291030645E0,9.139320374E0
3.809391436E1,4.404947758E-1,2.271245003E0,9.163204193E0
3.811391593E1,4.255166650E-1,2.253135204E0,9.167943954E0
3.813391593E1,4.066503644E-1,2.257655382E0,9.162169456E0
3.815391437E1,4.020343423E-1,2.260959387E0,9.120462418E0
3.817391436E1,4.024461210E-1,2.247341156E0,9.133648872E0
3.819391437E1,3.805535436E-1,2.260882854E0,9.148637772E0
3.821391593E1,4.219062030E-1,2.250252724E0,9.139233589E0
3.823391437E1,4.579245746E-1,2.257454395E0,9.136034012E0
3.825391436E1,4.674535096E-1,2.247992516E0,9.137384415E0
3.827391593E1,4.761109352E-1,2.246747494E0,9.132682800E0
3.829391436E1,4.273554087E-1,2.272049427E0,9.124838829E0
3.831391593E1,4.233618677E-1,2.277115583E0,9.127626419E0
3.833391437E1,4.076367617E-1,2.280553579E0,9.129435539E0
3.835391593E1,3.985005021E-1,2.261850119E0,9.136896133E0
3.837391437E1,4.148864150E-1,2.261380911E0,9.142134666E0
3.839391436E1,4.118888676E-1,2.267423868E0,9.156490326E0
3.841391749E1,4.218104482E-1,2.297408819E0,9.147928238E0
3.843391593E1,4.281790257E-1,2.281664610E0,9.143581390E0
3.845391436E1,4.019098282E-1,2.262261868E0,9.145179749E0
3.847391437E1,4.160547853E-1,2.247456312E0,9.146263123E0
3.849391593E1,4.177115560E-1,2.241240740E0,9.135287285E0
3.851391593E1,4.146565497E-1,2.247312546E0,9.144394875E0
3.853391749E1,4.479934275E-1,2.256084919E0,9.152792931E0
3.855391437E1,4.411939085E-1,2.257195711E0,9.149872780E0
3.857391593E1,4.334366918E-1,2.262893915E0,9.140324593E0
3.859391436E1,4.078857601E-1,2.258957863E0,9.135047913E0
3.861391593E1,4.174625576E-1,2.245425940E0,9.120912552E0
3.863391593E1,4.064875543E-1,2.276014328E0,9.150773048E0
3.865391437E1,3.804386258E-1,2.280151367E0,9.149183273E0
3.867391436E1,4.038156271E-1,2.248021126E0,9.138648033E0
3.869391437E1,4.223850369E-1,2.263487816E0,9.152908325E0
3.871391749E1,4.038634896E-1,2.259245157E0,9.136244774E0
3.873391437E1,4.012873471E-1,2.253307581E0,9.146799088E0
3.875391436E1,4.216284752E-1,2.270143747E0,9.128535271E0
3.877391593E1,3.975236714E-1,2.258929253E0,9.135737419E0
3.879391436E1,4.365778863E-1,2.275832176E0,9.144710541E0
3.881391593E1,4.294623137E-1,2.256515741E0,9.168747902E0
3.883391437E1,3.926490545E-1,2.248250961E0,9.158980370E0
3.885391593E1,3.972555101E-1,2.263698578E0,9.151126862E0
3.887391437E1,4.142160416E-1,2.237687826E0,9.136148453E0
3.889391436E1,4.160643518E-1,2.239603281E0,9.129684448E0
3.891391749E1,4.106726050E-1,2.259925127E0,9.160034180E0
3.893391593E1,4.079527855E-1,2.253489494E0,9.159775734E0
3.895391436E1,4.100213945E-1,2.264512539E0,9.164678574E0
3.897391437E1,4.247601032E-1,2.260739326E0,9.144336700E0
3.899391593E1,4.329290986E-1,2.252120018E0,9.137681961E0
3.901391593E1,4.340112805E-1,2.243137121E0,9.128027916E0
3.903391436E1,4.177115560E-1,2.258546114E0,9.146664619E0
3.905391437E1,4.137755036E-1,2.297925949E0,9.153166771E0
3.907391593E1,3.975619674E-1,2.256860733E0,9.160598755E0
3.909391436E1,3.770101368E-1,2.242495298E0,9.151203156E0
3.911391593E1,3.741849661E-1,2.273763657E0,9.142451286E0
3.913391593E1,3.775081336E-1,2.284614325E0,9.143944740E0
3.915391437E1,3.859740198E-1,2.268228292E0,9.163949966E0
3.917391436E1,4.264743328E-1,2.232803583E0,9.150102615E0
3.919391437E1,4.372578263E-1,2.242255926E0,9.146913528E0
3.921391749E1,4.187362790E-1,2.231041670E0,9.160559654E0
3.923391593E1,4.168688059E-1,2.248002052E0,9.156069756E0
3.925391436E1,4.144171476E-1,2.256103992E0,9.160703659E0
3.927391593E1,3.902740180E-1,2.279394865E0,9.144135475E0
3.929391436E1,3.846524358E-1,2.264531612E0,9.135976791E0
3.931391593E1,3.856197000E-1,2.259254932E0,9.137460709E0
3.933391437E1,4.111035764E-1,2.260576487E0,9.147229195E0
3.935391593E1,4.267329276E-1,2.267289877E0,9.147689819E0
3.937391437E1,4.241184592E-1,2.277699709E0,9.144892693E0
3.939391436E1,4.275277853E-1,2.262558937E0,9.156729698E0
3.941391749E1,4.093510211E-1,2.247551918E0,9.137010574E0
3.943391593E1,3.913274705E-1,2.248863935E0,9.136255264E0
3.945391436E1,4.064396620E-1,2.252637148E0,9.139970779E0
3.947391437E1,3.956370354E-1,2.259953976E0,9.128870010E0
3.949391593E1,4.186788201E-1,2.281415462E0,9.160714149E0
3.951391593E1,4.061236382E-1,2.267490864E0,9.176994324E0
3.953391436E1,4.045817554E-1,2.259005785E0,9.182866096E0
3.955391437E1,4.079432189E-1,2.266542673E0,9.153695107E0
3.957391593E1,4.080581367E-1,2.261428833E0,9.137901306E0
3.959391436E1,4.108258486E-1,2.257540464E0,9.131552696E0
3.961391593E1,4.001860023E-1,2.261859655E0,9.153818130E0
3.963391593E1,3.903889358E-1,2.279126644E0,9.154135704E0
3.965391437E1,3.893067539E-1,2.254514217E0,9.161728859E0
3.967391436E1,4.013448060E-1,2.256831884E0,9.157869339E0
3.969391437E1,4.180371761E-1,2.253604412E0,9.149202347E0
3.971391749E1,4.375834465E-1,2.240972757E0,9.147573471E0
3.973391593E1,4.138999879E-1,2.250099421E0,9.137921333E0
3.975391436E1,3.924383819E-1,2.282603025E0,9.146989822E0
3.977391593E1,4.041986763E-1,2.281099558E0,9.158577919E0
3.979391436E1,4.114578962E-1,2.260269880E0,9.159343719E0
3.981391593E1,3.910593092E-1,2.238913774E0,9.144978523E0
3.983391437E1,4.046775401E-1,2.259973049E0,9.147554398E0
3.985391593E1,3.687070608E-1,2.278638363E0,9.145947456E0
3.987391437E1,4.211975336E-1,2.260940313E0,9.157284737E0
3.989391436E1,4.308892488E-1,2.240407705E0,9.151491165E0
3.991391749E1,4.312340021E-1,2.239018917E0,9.154804230E0
3.993391593E1,4.027909040E-1,2.262252331E0,9.168126106E0
3.995391436E1,3.989889026E-1,2.256305218E0,9.155733109E0
3.997391437E1,4.129231572E-1,2.261332989E0,9.153732300E0
3.999391593E1,3.997263312E-1,2.270248890E0,9.141215324E0
4.001391593E1,4.064683914E-1,2.272834778E0,9.122252464E0
4.003391436E1,4.148193598E-1,2.254648447E0,9.146625519E0
4.005391437E1,4.242812395E-1,2.240043640E0,9.156558037E0
4.007391593E1,4.328429103E-1,2.268161297E0,9.157151222E0
4.009391436E1,4.080102742E-1,2.263219595E0,9.153903961E0
4.011391593E1,3.953880370E-1,2.265211582E0,9.158089638E0
4.013391593E1,3.944016099E-1,2.274453163E0,9.161689758E0
4.015391437E1,4.008659720E-1,2.266063929E0,9.152545929E0
4.017391436E1,3.770197034E-1,2.276339769E0,9.132348061E0
4.019391437E1,3.890194595E-1,2.257444859E0,9.163156509E0
4.021391749E1,4.043040276E-1,2.267337561E0,9.160885811E0
4.023391437E1,4.088817537E-1,2.274022341E0,9.174244881E0
4.025391436E1,4.105959833E-1,2.265747786E0,9.146051407E0
4.027391593E1,4.278629720E-1,2.258191824E0,9.169476509E0
4.029391436E1,4.227202237E-1,2.280725956E0,9.150245667E0
4.031391593E1,4.066694975E-1,2.266494989E0,9.149297714E0
4.033391437E1,3.808600008E-1,2.254083395E0,9.136417389E0
4.035391593E1,3.759566844E-1,2.254236460E0,9.153148651E0
4.037391437E1,3.875541985E-1,2.255462408E0,9.156767845E0
4.039391436E1,3.997741938E-1,2.271359921E0,9.151701927E0
4.041391749E1,4.157100022E-1,2.254361153E0,9.132337570E0
4.043391593E1,4.205750227E-1,2.258814335E0,9.138313293E0
4.045391436E1,4.526477456E-1,2.237170696E0,9.152947426E0
4.047391437E1,4.314925969E-1,2.240503550E0,9.157869339E0
4.049391593E1,3.929267824E-1,2.277086735E0,9.167119980E0
4.051391593E1,3.899005055E-1,2.263391972E0,9.163932800E0
4.053391436E1,3.787818551E-1,2.266695976E0,9.161374092E0
4.055391437E1,3.726335466E-1,2.271187544E0,9.141914368E0
4.057391593E1,3.848727047E-1,2.277096510E0,9.149231911E0
4.059391436E1,3.656041622E-1,2.279921532E0,9.161144257E0
4.061391593E1,3.902165592E-1,2.273696661E0,9.179140091E0
4.063391593E1,4.058650434E-1,2.247791290E0,9.163864136E0
4.065391437E1,4.031260908E-1,2.238233805E0,9.142220497E0
4.067391436E1,4.070717394E-1,2.249304533E0,9.160196304E0
4.069391437E1,4.231128693E-1,2.240493774E0,9.158654213E0
4.071391749E1,4.197801650E-1,2.236490726E0,9.163279533E0
4.073391437E1,4.301422536E-1,2.268429518E0,9.142748833E0
4.075391436E1,4.149534404E-1,2.267414331E0,9.159343719E0
4.077391593E1,3.856292665E-1,2.279241562E0,9.162120819E0
4.079391436E1,3.613903522E-1,2.285571814E0,9.147267342E0
4.081391593E1,3.823348284E-1,2.289086580E0,9.157083511E0
4.083391437E1,3.838000894E-1,2.285428286E0,9.155667305E0
4.085391593E1,3.954837918E-1,2.261783123E0,9.176591873E0
4.087391437E1,4.177498817E-1,2.246067524E0,9.165108681E0
4.089391436E1,4.270585179E-1,2.253192663E0,9.156547546E0
4.091391593E1,4.153556824E-1,2.276531458E0,9.163731575E0
4.093391593E1,3.977343440E-1,2.264636993E0,9.165683746E0
4.095391436E1,3.857154548E-1,2.247168779E0,9.152764320E0
4.097391437E1,3.883778155E-1,2.242246389E0,9.150600433E0
4.099391749E1,4.096670449E-1,2.247705221E0,9.155130386E0
4.101391593E1,4.202207029E-1,2.242849827E0,9.150476456E0
4.103391436E1,4.273075163E-1,2.247657299E0,9.156509399E0
4.105391437E1,4.343369007E-1,2.281080246E0,9.163042068E0
4.107391593E1,4.000040591E-1,2.283551216E0,9.158033371E0
4.109391436E1,3.514400721E-1,2.265383959E0,9.176486015E0
4.111391593E1,3.551271260E-1,2.290551901E0,9.171965599E0
4.113391593E1,3.622522652E-1,2.260040045E0,9.157410622E0
4.115391437E1,3.855622113E-1,2.260260344E0,9.154365540E0
4.117391436E1,3.994102776E-1,2.261495829E0,9.154181480E0
4.119391437E1,4.238694608E-1,2.267749548E0,9.154469490E0
4.121391749E1,4.210634530E-1,2.255232573E0,9.170636177E0
4.123391437E1,4.354286492E-1,2.244918346E0,9.151088715E0
4.125391436E1,4.448235035E-1,2.238837004E0,9.140439034E0
4.127391593E1,4.400351048E-1,2.246345282E0,9.158319473E0
4.129391436E1,4.241184592E-1,2.246393204E0,9.156654358E0
4.131391593E1,3.876116574E-1,2.284049273E0,9.150419235E0
4.133391437E1,3.657286465E-1,2.289258957E0,9.154622078E0
4.135391593E1,3.577128649E-1,2.271273613E0,9.160714149E0
4.137391437E1,3.640910387E-1,2.277910471E0,9.154087067E0
4.139391436E1,3.662266433E-1,2.269358397E0,9.171841621E0
4.141391437E1,3.730836511E-1,2.259092093E0,9.169763565E0
4.143391593E1,4.025610685E-1,2.261945963E0,9.168595314E0
4.145391436E1,4.454076886E-1,2.253546953E0,9.159775734E0
4.147391437E1,4.340974689E-1,2.234096527E0,9.154335976E0
4.149391593E1,4.172806144E-1,2.233838081E0,9.156681061E0
4.151391593E1,3.964223266E-1,2.234211445E0,9.169381142E0
4.153391593E1,4.005116224E-1,2.257349014E0,9.162706375E0
4.155391437E1,3.706894517E-1,2.275104523E0,9.151999474E0
4.157391593E1,3.704404533E-1,2.270996094E0,9.158319473E0
4.159391436E1,3.871615529E-1,2.281875134E0,9.156250954E0
4.161391593E1,3.945931494E-1,2.275525808E0,9.152563095E0
4.163391593E1,3.991708755E-1,2.292314053E0,9.152832031E0
4.165391437E1,3.879755735E-1,2.288492918E0,9.145267487E0
4.167391436E1,4.161888659E-1,2.282143354E0,9.156701088E0
4.169391437E1,4.205750227E-1,2.244487286E0,9.173642159E0
4.171391749E1,4.243961871E-1,2.253614187E0,9.154162407E0
4.173391437E1,3.784562349E-1,2.270440578E0,9.148703575E0
4.175391436E1,3.588621020E-1,2.252895832E0,9.153090477E0
4.177391593E1,3.586801291E-1,2.242955208E0,9.165904045E0
4.179391593E1,3.805631399E-1,2.252551079E0,9.166191101E0
4.181391593E1,3.961541653E-1,2.254744053E0,9.154201508E0
4.183391437E1,4.142543375E-1,2.245473862E0,9.164937973E0
4.185391593E1,4.299124181E-1,2.242782831E0,9.170002937E0
4.187391437E1,4.465377629E-1,2.256879807E0,9.162829399E0
4.189391436E1,4.320863485E-1,2.270756483E0,9.138620377E0
4.191391593E1,4.004445970E-1,2.283311844E0,9.129445076E0
4.193391593E1,3.965851367E-1,2.289201498E0,9.159737587E0
4.195391436E1,3.557209074E-1,2.280649424E0,9.179541588E0
4.197391437E1,3.969394863E-1,2.290848732E0,9.169437408E0
4.199391593E1,4.009042680E-1,2.260499716E0,9.137930870E0
4.201391593E1,3.920170069E-1,2.254763365E0,9.145171165E0
4.203391436E1,3.749511242E-1,2.272403717E0,9.164017677E0
