"Time (s)","Gyroscope x (rad/s)","Gyroscope y (rad/s)","Gyroscope z (rad/s)"
1.540217700E-2,-3.359758854E-2,1.619665511E-2,-2.544690110E-2
3.539436500E-2,-5.878268927E-2,9.145525284E-3,-3.473205259E-3
5.539592700E-2,-4.356341809E-2,1.328195538E-2,1.815142483E-2
7.539592700E-2,-5.934119690E-4,4.642575979E-3,2.008873969E-2
9.539436500E-2,3.703588620E-2,-1.117010694E-2,1.165879890E-2
1.154006150E-1,2.820452116E-2,-5.567600485E-3,2.111848444E-3
1.353959270E-1,-5.218534265E-3,1.343903481E-3,3.141592606E-4
1.553959270E-1,-2.178170905E-2,9.023352526E-3,1.445132587E-2
1.753943650E-1,-1.973967440E-2,1.342158206E-2,2.080432512E-2
1.953959270E-1,-4.084070213E-3,-9.773843922E-4,1.317723561E-2
2.153959270E-1,3.630284918E-3,-1.094321441E-2,2.967059845E-4
2.353943650E-1,4.084070213E-3,-1.518436475E-3,-8.970992640E-3
2.553959270E-1,-1.937315450E-3,-2.513274085E-3,-9.424777701E-3
2.753943650E-1,-8.063420653E-3,-1.291543595E-3,-6.510077976E-3
2.953943650E-1,-5.323254038E-3,-1.326450263E-3,-8.412486874E-3
3.154006150E-1,5.724680144E-3,-5.585053586E-4,-5.567600485E-3
3.353959270E-1,7.661995478E-3,3.944444004E-3,-2.617993741E-4
3.553959270E-1,-6.283185212E-4,-4.764748737E-3,4.904375412E-3
3.753943650E-1,-1.148426626E-2,-3.281218931E-3,4.014257283E-4
3.953943650E-1,-7.278022822E-3,1.466076588E-3,-3.368485486E-3
4.154006150E-1,6.911503617E-3,5.410520826E-3,-8.726646047E-5
4.353943650E-1,1.558579039E-2,6.457718089E-3,1.209513191E-2
4.553943650E-1,9.756390937E-3,-9.948377265E-4,1.942551509E-2
4.753974900E-1,-2.391101094E-3,-1.553343027E-3,1.581268385E-2
4.953959270E-1,-1.150172018E-2,-7.504915702E-4,1.034980267E-2
5.153959270E-1,-8.639379404E-3,4.293509759E-3,3.612831468E-3
5.353943650E-1,-3.543018363E-3,3.787364578E-3,-7.330382941E-4
5.553959270E-1,-2.268928074E-4,3.071779385E-3,-6.352998316E-3
5.753974900E-1,9.599310579E-4,-9.424777818E-4,-9.686577134E-3
5.953943650E-1,7.155850180E-4,-5.044001620E-3,-8.168140426E-3
6.153974900E-1,1.047197584E-4,-5.358160939E-3,-1.431170036E-3
6.353943650E-1,1.221730490E-4,-4.363323096E-4,-1.745329209E-4
6.553943650E-1,-1.815142459E-3,2.234021435E-3,-4.188790335E-4
6.753943650E-1,-5.585053586E-4,-4.677482415E-3,1.308996929E-3
6.953959270E-1,4.153883550E-3,-3.368485486E-3,3.159045940E-3
7.153959270E-1,2.460914198E-3,-3.089232836E-3,5.585053586E-4
7.353943650E-1,1.029744279E-3,-1.518436475E-3,-1.099557383E-3
7.553959270E-1,-7.679448463E-4,-5.410520826E-4,-8.726646047E-5
7.753974900E-1,-7.853981806E-4,1.570796361E-3,6.806784077E-4
7.953943650E-1,1.378810150E-3,2.478367416E-3,3.979350906E-3
8.153959270E-1,2.268928103E-3,-9.197885171E-3,6.195918657E-3
8.353959270E-1,9.808750823E-3,-2.398082428E-2,3.612831468E-3
8.553943650E-1,3.701843321E-2,-5.469861999E-2,1.085594762E-2
8.753943650E-1,5.859070271E-2,-5.052728206E-2,2.199114859E-2
8.953943650E-1,4.028219730E-2,-2.743657492E-2,1.352630183E-2
9.153974900E-1,4.363323096E-4,-6.998770405E-3,-2.528982051E-2
9.353943650E-1,-6.487388909E-2,3.495894372E-2,-6.752678752E-2
9.553959270E-1,-1.159422249E-1,5.445427075E-2,-9.389871359E-2
9.753959270E-1,-6.560692936E-2,-4.801400751E-2,-1.110203937E-1
9.953943650E-1,-9.075712296E-4,-6.340780854E-2,-1.148775741E-1
1.015395927E0,4.047418386E-2,-6.574655324E-2,-1.037598252E-1
1.035394365E0,3.925245628E-2,-1.874483563E-2,-4.668755829E-2
1.055395927E0,-1.500983140E-3,1.427679323E-2,2.188642882E-2
1.075395927E0,-2.220058814E-2,7.155850180E-4,6.087708473E-2
1.095394365E0,-3.520328924E-2,-4.426154867E-2,5.766567960E-2
1.115397490E0,-1.665044017E-2,-3.836233541E-2,4.141666368E-2
1.135394365E0,7.766715251E-3,-1.980948634E-2,2.336995862E-2
1.155394365E0,1.630137488E-2,-5.183627829E-3,-6.021386012E-3
1.175394365E0,7.801621687E-3,1.361356815E-3,-3.501130641E-2
1.195395927E0,-1.139700040E-2,-2.413790300E-2,-4.974188283E-2
1.215395927E0,-1.719149388E-2,-1.940806210E-2,-4.860742018E-2
1.235394365E0,-9.354964830E-3,-8.552113432E-4,-2.871066518E-2
1.255395927E0,-7.243116386E-3,-6.405358203E-3,-2.338741207E-3
1.275395927E0,-1.370083448E-2,-3.089232743E-2,8.866272867E-3
1.295394365E0,-2.453932911E-2,-3.474950418E-2,-2.443460980E-3
1.315395927E0,-3.412118554E-2,-1.755801216E-2,-1.815142483E-2
1.335395927E0,-2.645919099E-2,2.914699726E-3,-2.059488557E-2
1.355394365E0,-7.208209950E-3,-6.719517522E-3,-6.649704650E-3
1.375394365E0,2.094394993E-3,-2.764601447E-2,8.028514683E-3
1.395394365E0,6.981316983E-5,-3.579670191E-2,8.168140426E-3
1.415397490E0,-1.240929123E-2,-2.822197415E-2,2.268928103E-3
1.435394365E0,-1.982693933E-2,-1.717403904E-2,-4.886921961E-3
1.455394365E0,-1.893682219E-2,-1.387536712E-2,-1.715658605E-2
1.475397490E0,-1.364847459E-2,-1.509709843E-2,-3.913028166E-2
1.495394365E0,-3.543018363E-3,-1.244419720E-2,-5.522221699E-2
1.515395927E0,8.133234456E-3,-9.704031050E-3,-4.675737023E-2
1.535394365E0,8.168140426E-3,-8.639379404E-3,-1.513200440E-2
1.555395927E0,-6.510077976E-3,-1.368338149E-2,1.125737373E-2
1.575394365E0,-2.790781483E-2,-1.319468953E-2,1.494001877E-2
1.595394365E0,-2.892010473E-2,-1.497492474E-2,2.949606394E-3
1.615397490E0,-9.267698042E-3,-1.048942842E-2,-1.188569237E-2
1.635394365E0,1.041961554E-2,-2.111848444E-3,-2.235766686E-2
1.655394365E0,7.103490178E-3,8.587019518E-3,-1.975712739E-2
1.675394365E0,-7.696901914E-3,3.508111695E-3,-8.831365965E-3
1.695395927E0,-1.560324337E-2,-1.247910410E-2,2.408554312E-3
1.715395927E0,-1.151917316E-2,-1.356120780E-2,6.457718089E-3
1.735394365E0,-1.466076588E-3,-2.478367416E-3,5.445427261E-3
1.755395927E0,1.745329238E-3,7.504915702E-4,9.424777701E-3
1.775395927E0,-7.417649496E-3,-6.265731994E-3,1.310742274E-2
1.795394365E0,-2.553416602E-2,-1.413716655E-2,8.587019518E-3
1.815395927E0,-2.506292798E-2,-9.756390937E-3,2.617993741E-4
1.835395927E0,-1.041961554E-2,3.455751808E-3,-3.490658419E-4
1.855394365E0,2.705260413E-3,6.440265104E-3,7.592182141E-3
1.875394365E0,1.169370604E-3,3.124139272E-3,1.672025397E-2
1.895394365E0,-1.050688233E-2,-5.305801053E-3,1.062905509E-2
1.915397490E0,-1.696459949E-2,-2.809980186E-3,6.806784077E-4
1.935394365E0,-1.649336144E-2,3.996803891E-3,-1.692969352E-3
1.955395927E0,-1.593485661E-2,5.009094719E-3,2.460914198E-3
1.975395927E0,-1.787217148E-2,4.293509759E-3,9.965829551E-3
1.995394365E0,-2.138028294E-2,2.862340072E-3,1.295034308E-2
2.015395927E0,-1.860520989E-2,8.098327555E-3,1.137954649E-2
2.035394365E0,-1.717403904E-2,-1.570796361E-3,6.963863503E-3
2.055395927E0,-2.104867063E-2,-2.443460934E-2,-1.692969352E-3
2.075394365E0,-1.879719645E-2,-3.234095126E-2,-1.991420612E-2
2.095394365E0,-1.150172018E-2,-2.272418700E-2,-4.125958309E-2
2.115397490E0,-8.499753661E-3,-5.619960371E-3,-4.904375225E-2
2.135394365E0,-1.108284108E-2,1.446877979E-2,-3.935717419E-2
2.155394365E0,-1.213003788E-2,2.040289901E-2,-1.898918301E-2
2.175394365E0,-1.071632188E-2,9.250245057E-3,8.709193207E-3
2.195395927E0,-5.026548170E-3,2.617993741E-4,3.981095925E-2
2.215395927E0,-3.700098023E-3,-4.974188283E-3,5.028293654E-2
2.235394365E0,-1.115265395E-2,-1.811651699E-2,3.663446009E-2
2.255395927E0,-1.022762898E-2,-8.901178837E-3,-5.235987919E-5
2.275397490E0,-2.617993741E-4,5.689773243E-3,-3.474950418E-2
2.295394365E0,4.607669078E-3,3.438298590E-3,-5.138249323E-2
2.315395927E0,1.151917269E-3,3.961897455E-3,-4.961971194E-2
2.335395927E0,-1.745329238E-3,1.647590846E-2,-3.354522958E-2
2.355394365E0,-7.033676840E-3,1.644100063E-2,-5.427973811E-3
2.375394365E0,-9.337511845E-3,-1.221730490E-4,1.918116771E-2
2.395394365E0,-6.841690745E-3,-1.090830751E-2,3.518583626E-2
2.415397490E0,5.759586347E-4,-7.644542027E-3,3.253293782E-2
2.435394365E0,8.150687441E-3,-6.562437862E-3,1.591740362E-2
2.455395927E0,7.592182141E-3,-2.652900526E-3,-1.029744279E-3
2.475397490E0,3.036872949E-3,-1.378810150E-3,-1.151917316E-2
2.495394365E0,2.356194425E-3,-3.525565146E-3,-1.375319436E-2
2.515395927E0,-1.221730490E-4,-5.253441166E-3,-9.930923581E-3
2.535394365E0,5.061454722E-4,1.797689125E-3,-4.468042869E-3
2.555395927E0,3.124139272E-3,9.407324716E-3,6.108652451E-4
2.575395927E0,3.595378250E-3,1.069886796E-2,1.076868176E-2
2.595394365E0,-2.967059845E-4,9.285151958E-3,1.570796408E-2
2.615397490E0,-4.660028964E-3,1.054178830E-2,1.342158206E-2
2.635394365E0,-1.954768784E-3,7.016223390E-3,1.308996929E-3
2.655394365E0,1.204277156E-3,5.235987919E-5,-1.326450240E-2
2.675394365E0,9.232792072E-3,3.455751808E-3,-2.094395086E-2
2.695395927E0,1.577777602E-2,6.056292448E-3,-1.687733456E-2
2.715395927E0,1.089085452E-2,3.630284918E-3,5.113814492E-3
2.735394365E0,1.221730490E-3,2.408554312E-3,2.672099136E-2
2.755395927E0,-5.305801053E-3,8.220500313E-3,3.159045801E-2
2.775395927E0,-7.627088577E-3,1.123992074E-2,2.249729447E-2
2.795394365E0,-6.457717973E-4,1.057669520E-2,1.481784508E-2
2.815395927E0,7.836528122E-3,3.246312495E-3,1.438151300E-2
2.835395927E0,1.022762898E-2,-6.649704650E-3,1.188569237E-2
2.855394365E0,2.373647876E-3,-1.174606569E-2,-4.537856148E-4
2.875394365E0,-2.164208330E-3,-3.036872949E-3,-1.637118869E-2
2.895394365E0,1.099557383E-3,6.806783844E-3,-2.363175713E-2
2.915397490E0,6.946410518E-3,3.036872949E-3,-1.731366664E-2
2.935394365E0,7.906341925E-3,-4.101523664E-3,-1.235693134E-2
2.955395927E0,5.986479111E-3,-1.281071641E-2,-1.806415804E-2
2.975395927E0,-2.583087189E-3,-4.014257342E-3,-2.195624262E-2
2.995394365E0,-6.859143730E-3,2.303834539E-3,-1.773254573E-2
3.015395927E0,1.675516134E-3,-1.014036313E-2,-2.076941775E-3
3.035394365E0,1.333431527E-2,-1.719149388E-2,1.247910410E-2
3.055395927E0,6.614797749E-3,-1.719149388E-2,2.722713538E-2
3.075395927E0,-1.188569237E-2,-1.052433532E-2,4.066617042E-2
3.095394365E0,-1.848303713E-2,-1.165879890E-2,4.968952388E-2
3.115397490E0,-1.780235791E-3,-1.422443334E-2,3.879866749E-2
3.135394365E0,1.984439418E-2,-1.951278187E-2,-4.502949305E-3
3.155394365E0,2.949606441E-2,-8.028514683E-3,-5.984733999E-2
3.175394365E0,2.501056902E-2,1.363102160E-2,-9.012880176E-2
3.195395927E0,2.001892589E-2,1.788962446E-2,-7.520623505E-2
3.215395927E0,1.476548519E-2,5.288347602E-3,-2.949606441E-2
3.235394365E0,1.075122785E-2,-1.117010717E-3,1.026253588E-2
3.255395927E0,6.143558770E-3,-5.044001620E-3,3.494149074E-2
3.275395927E0,3.420845373E-3,-1.237438433E-2,4.356341809E-2
3.295394365E0,1.082104165E-2,-1.691224054E-2,3.960151970E-2
3.315395927E0,2.185152285E-2,-8.133234456E-3,2.403318323E-2
3.335395927E0,2.382374369E-2,6.981316954E-3,1.406735368E-2
3.355394365E0,1.357866172E-2,9.354964830E-3,1.598721556E-2
3.375394365E0,-5.672320258E-3,1.172861271E-2,1.569050923E-2
3.395394365E0,-2.136282995E-2,1.158898603E-2,5.445427261E-3
3.415397490E0,-1.836086437E-2,1.235693134E-2,-9.093165398E-3
3.435394365E0,5.061454605E-3,1.085594762E-2,-2.218313515E-2
3.455395927E0,2.579596639E-2,5.462880712E-3,-2.802998759E-2
3.475397490E0,2.459168993E-2,5.724680144E-3,-2.754129469E-2
3.495394365E0,1.019272301E-2,1.989675453E-3,-1.886700839E-2
3.515395927E0,-1.710422686E-3,8.918632753E-3,-5.759586347E-4
3.535394365E0,-2.984513063E-3,1.261873078E-2,1.973967440E-2
3.555395927E0,1.221730490E-4,1.123992074E-2,3.188716620E-2
3.575394365E0,7.278022822E-3,5.235987715E-3,2.605776489E-2
3.595394365E0,1.026253588E-2,7.714355364E-3,8.709193207E-3
3.615397490E0,7.365289610E-3,1.104793418E-2,-5.689773243E-3
3.635394365E0,4.258603323E-3,1.368338149E-2,-6.806783844E-3
3.655394365E0,4.171337001E-3,1.204277202E-2,6.632251316E-4
3.675394365E0,7.295476273E-3,9.651671164E-3,1.073377486E-2
3.695395927E0,7.487462368E-3,1.951278187E-2,1.881464943E-2
3.715395927E0,2.530727303E-3,1.685987972E-2,2.043780498E-2
3.735394365E0,4.886921961E-4,1.103048120E-2,1.876228862E-2
3.755395927E0,1.064650831E-3,8.901178837E-3,8.464846760E-3
3.775395927E0,3.560471581E-3,3.228859045E-3,-4.520402756E-3
3.795394365E0,5.864306353E-3,-9.250245057E-4,-1.312487572E-2
3.815395927E0,5.026548170E-3,-1.675516134E-3,-1.293289009E-2
3.835395927E0,4.904375412E-3,-6.632251316E-4,-9.407324716E-3
3.855394365E0,-2.443460980E-4,6.981316837E-4,-2.792526735E-3
3.875394365E0,-2.722713631E-3,-9.773843922E-4,2.670353744E-3
3.895394365E0,3.351032268E-3,-5.672320258E-3,9.477137588E-3
3.915397490E0,8.150687441E-3,-6.736970972E-3,1.488765888E-2
3.935394365E0,2.827433404E-3,-1.483529806E-3,1.298524998E-2
3.955395927E0,-2.722713631E-3,-1.047197584E-4,9.075712296E-4
3.975395927E0,-5.532693584E-3,-3.665191354E-3,-1.569050923E-2
3.995394365E0,-2.268928103E-3,-4.747295752E-3,-2.846631967E-2
4.015395927E0,-1.832595677E-3,-7.068583276E-3,-3.054326214E-2
4.035394365E0,-1.745329246E-5,-3.106686054E-3,-2.527236752E-2
4.055395927E0,-6.457717973E-4,-7.016223390E-3,-1.258382387E-2
4.075394365E0,-6.841690745E-3,-1.139700040E-2,1.553343027E-3
4.095394365E0,-9.948376566E-3,-1.534144394E-2,1.261873078E-2
4.115397490E0,-1.151917269E-3,-1.071632188E-2,1.336922217E-2
4.135394365E0,7.784168236E-3,-2.914699726E-3,1.391027402E-2
4.155394365E0,5.724680144E-3,-2.949606394E-3,1.148426626E-2
4.175394365E0,-1.570796303E-4,-1.832595677E-3,3.333578818E-3
4.195395927E0,-2.879793290E-3,1.588249579E-3,-5.567600485E-3
4.215395927E0,3.141592722E-3,1.274090377E-3,-1.193805225E-2
4.235394365E0,8.552113548E-3,6.981316983E-5,-1.340412907E-2
4.255395927E0,8.639379404E-3,-1.221730490E-3,-1.680752076E-2
4.275395927E0,1.448623254E-3,-6.806783844E-3,-1.626646891E-2
4.295395927E0,1.221730490E-4,-9.197885171E-3,-1.055924222E-2
4.315395927E0,3.403391922E-3,-6.283185445E-3,-1.291543595E-3
4.335395927E0,7.417649496E-3,-5.585053470E-3,8.272860199E-3
4.355395927E0,3.944444004E-3,-9.791296907E-3,7.696901914E-3
4.375394365E0,1.745329209E-4,-1.247910410E-2,7.784168236E-3
4.395394365E0,8.726646192E-4,-9.285151958E-3,7.225662936E-3
4.415397490E0,1.069886796E-2,-8.726646192E-3,6.632251199E-3
4.435394365E0,1.288053021E-2,-7.016223390E-3,2.705260413E-3
4.455394365E0,7.295476273E-3,-4.904375412E-3,3.438298590E-3
4.475397490E0,-1.919862116E-4,-2.967059845E-4,-5.934119690E-4
4.495394365E0,-6.265731994E-3,-8.831365965E-3,-6.422811653E-3
4.515395927E0,-3.525565146E-3,-1.614429615E-2,-2.323033288E-2
4.535394365E0,2.722713631E-3,-7.504915819E-3,-4.185299575E-2
4.555395927E0,1.083849464E-2,-8.552113432E-4,-4.710643739E-2
4.575395927E0,1.487020496E-2,3.490658419E-4,-3.195697814E-2
4.595394365E0,1.244419720E-2,8.901178953E-4,-3.839724232E-3
4.615397490E0,5.567600485E-3,5.061454722E-4,2.076941729E-2
4.635394365E0,-2.373647876E-3,2.775073517E-3,3.115412779E-2
4.655394365E0,-1.057669520E-2,1.326450240E-2,3.171263263E-2
4.675394365E0,6.457717973E-4,6.457718089E-3,2.354449220E-2
4.695395927E0,1.350884791E-2,-1.769763790E-2,7.644542027E-3
4.715395927E0,1.099557430E-2,-1.118756086E-2,-1.783726551E-2
4.735394365E0,2.949606394E-3,-7.504915819E-3,-4.525638744E-2
4.755395927E0,5.934119690E-4,-2.827433404E-3,-5.955063552E-2
4.775395927E0,7.260569837E-3,3.159045940E-3,-4.436627030E-2
4.795394365E0,5.340707488E-3,-4.415682983E-3,6.283185212E-4
4.815394365E0,-5.358160939E-3,-1.448623254E-3,4.497713596E-2
4.835395927E0,-1.610938832E-2,-3.193952609E-3,5.993460491E-2
4.855394365E0,-1.399754081E-2,-5.148721393E-3,4.249876738E-2
4.875394365E0,1.099557383E-3,-1.710422686E-3,7.487462368E-3
4.895394365E0,9.477137588E-3,-3.612831468E-3,-2.080432512E-2
4.915397490E0,5.427973811E-3,-1.343903481E-3,-3.867649660E-2
4.935394365E0,-5.148721393E-3,1.064650831E-3,-4.417428374E-2
4.955395927E0,-1.322959550E-2,3.368485486E-3,-3.630284965E-2
4.975395927E0,-1.172861271E-2,9.599310579E-4,-1.350884791E-2
4.995394365E0,-8.360126987E-3,-9.250245057E-4,8.080874570E-3
5.015395927E0,-2.687806962E-3,-2.670353744E-3,2.286381274E-2
5.035394365E0,6.981316837E-4,-6.579891313E-3,2.225294709E-2
5.055395927E0,-1.291543595E-3,-5.026548170E-3,1.630137488E-2
5.075395927E0,-3.438298590E-3,-1.553343027E-3,5.881759338E-3
5.095394365E0,-3.752457909E-3,5.759586347E-4,-6.981316983E-5
5.115397490E0,-4.660028964E-3,2.042035107E-3,-4.939281847E-3
5.135394365E0,-5.777040031E-3,2.792526735E-3,-8.674286306E-3
5.155395927E0,-5.759586347E-4,5.235987919E-5,-8.691739291E-3
5.175394365E0,4.485496320E-3,-1.099557383E-3,-6.091198884E-3
5.195395927E0,4.956734832E-3,1.640609466E-3,-2.879793290E-3
5.215395927E0,7.155850180E-4,3.543018363E-3,4.084070213E-3
5.235394365E0,-1.762782573E-3,4.782202188E-3,1.165879890E-2
5.255395927E0,-1.605702913E-3,3.996803891E-3,1.602212340E-2
5.275395927E0,-9.599310579E-4,3.263765713E-3,1.502728462E-2
5.295394365E0,6.108652451E-4,2.146754880E-3,8.674286306E-3
5.315395927E0,1.221730490E-4,5.061454605E-3,1.151917269E-3
5.335395927E0,2.967059845E-4,2.932153177E-3,-4.590216093E-3
5.355394365E0,-8.203047328E-4,4.799655639E-3,-7.819075137E-3
5.375394365E0,-3.490658419E-4,7.051130291E-3,-8.080874570E-3
5.395394365E0,-2.373647876E-3,5.881759338E-3,-4.398229532E-3
5.415397490E0,-4.869468510E-3,1.396263367E-3,-8.726646192E-4
5.435394365E0,-3.682644805E-3,-1.762782573E-3,-1.919862116E-4
5.455395927E0,-7.330382941E-4,3.490658492E-5,-8.377580671E-4
5.475397490E0,2.443460980E-4,2.583087189E-3,-1.797689125E-3
5.495394365E0,-3.508111695E-3,-6.457717973E-4,4.380776547E-3
5.515395927E0,-6.475171540E-3,-1.745329238E-3,8.761553094E-3
5.535394365E0,-2.897246508E-3,-1.082104165E-3,1.036725566E-2
5.555395927E0,7.155850180E-4,-1.919862116E-4,9.494591504E-3
5.575394365E0,3.368485486E-3,-1.082104165E-3,2.460914198E-3
5.595394365E0,2.687806962E-3,3.281218931E-3,-4.136430100E-3
5.615397490E0,3.839724232E-4,1.239183708E-3,-7.400196046E-3
5.635394365E0,-3.944444004E-3,1.082104165E-3,-7.679448463E-3
5.655394365E0,-4.258603323E-3,3.508111695E-3,-4.084070213E-3
5.675394365E0,-1.274090377E-3,2.391101094E-3,-2.809980186E-3
5.695395927E0,-4.712388909E-4,2.827433404E-3,-2.338741207E-3
5.715395927E0,-6.457717973E-4,2.792526735E-3,-1.500983140E-3
5.735394365E0,-3.141592606E-4,-1.588249579E-3,2.356194425E-3
5.755394365E0,1.448623254E-3,-2.059488557E-3,9.075712413E-3
5.775395927E0,-3.385938704E-3,7.155850180E-4,1.354375482E-2
5.795394365E0,-8.429939859E-3,-1.553343027E-3,1.068141498E-2
5.815395927E0,-1.350884791E-2,-3.420845373E-3,1.134464052E-3
5.835395927E0,-2.949606394E-3,-9.005898610E-3,-1.021017600E-2
5.855394365E0,5.183627829E-3,-6.021386012E-3,-1.740093343E-2
5.875394365E0,4.991641734E-3,-5.061454605E-3,-1.898918301E-2
5.895394365E0,-2.967059845E-4,-3.682644805E-3,-1.404990070E-2
5.915397490E0,-9.250245057E-4,-2.757620299E-3,-1.117010717E-3
5.935394365E0,-1.658062800E-3,-2.792526735E-3,9.948376566E-3
5.955395927E0,-2.443460980E-4,-1.797689125E-3,1.677261479E-2
5.975395927E0,7.679448463E-4,-1.413716702E-3,1.994911395E-2
5.995394365E0,4.014257283E-4,1.902408898E-3,1.895427518E-2
6.015395927E0,-4.502949305E-3,2.111848444E-3,1.406735368E-2
6.035394365E0,-8.342674002E-3,2.286381321E-3,1.553343027E-3
6.055395927E0,-8.377579972E-3,-2.059488557E-3,-1.130973361E-2
6.075394365E0,-5.393067375E-3,-6.510077976E-3,-2.474876866E-2
6.095394365E0,-2.164208330E-3,-5.777040031E-3,-3.152064607E-2
6.115397490E0,1.047197584E-4,-7.103490178E-3,-2.349213138E-2
6.135394365E0,-5.777040031E-3,-1.099557430E-2,-1.640609466E-3
6.155394365E0,-1.082104165E-2,-5.637413356E-3,1.539380383E-2
6.175394365E0,-1.450368576E-2,-5.602506921E-3,1.839577034E-2
6.195395927E0,-1.584758982E-2,-6.632251199E-3,8.604473434E-3
6.215395927E0,-5.899212789E-3,-4.223696887E-3,-5.270894151E-3
6.235394365E0,3.281218931E-3,-9.250245057E-3,-1.356120780E-2
6.255394365E0,6.579891313E-3,-1.335176919E-2,-9.005898610E-3
6.275395927E0,1.989675453E-3,-8.150687441E-3,-1.308996929E-3
6.295394365E0,-4.223696887E-3,-1.047197584E-4,3.874630900E-3
6.315395927E0,-1.192059834E-2,4.537856206E-3,5.427973811E-3
6.335395927E0,-9.197885171E-3,5.131267942E-3,2.234021435E-3
6.355394365E0,-3.455751808E-3,2.356194425E-3,-3.351032268E-3
6.375394365E0,1.745329246E-5,-4.118977115E-3,-5.811946467E-3
6.395394365E0,-1.570796361E-3,-8.220500313E-3,-7.295476273E-3
6.415397490E0,-5.916666240E-3,-9.913469665E-3,-4.694935866E-3
6.435394365E0,-1.043706853E-2,-1.034980267E-2,9.424777818E-4
6.455394365E0,-1.064650808E-2,-1.052433532E-2,4.607669078E-3
6.475397490E0,-1.068141498E-2,-6.352998316E-3,2.426007763E-3
6.495394365E0,-1.520181727E-2,-6.754423957E-3,2.268928074E-4
6.515395927E0,-1.483529899E-2,-4.904375412E-3,1.169370604E-3
6.535394365E0,-9.564404376E-3,-2.635447076E-3,3.211405827E-3
6.555395927E0,-6.579891313E-3,9.599310579E-4,3.909537569E-3
6.575394365E0,-6.702064537E-3,-9.599310579E-4,-2.495820867E-3
6.595394365E0,-5.811946467E-3,-9.250245057E-4,-9.756390937E-3
6.615397490E0,-3.228859045E-3,-1.553343027E-3,-1.026253588E-2
6.635395927E0,-2.356194425E-3,2.443460980E-4,-6.981316954E-3
6.655394365E0,-4.991641734E-3,3.682644805E-3,1.815142459E-3
6.675394365E0,-2.705260413E-3,7.801621687E-3,1.389282104E-2
6.695395927E0,-4.694935866E-3,5.427973811E-3,1.918116771E-2
6.715395927E0,-5.567600485E-3,8.203047328E-4,1.642354764E-2
6.735394365E0,-5.969026126E-3,-5.934119690E-4,4.817108624E-3
6.755394365E0,-5.707226694E-3,-1.745329238E-3,-6.003932562E-3
6.775395927E0,-7.365289610E-3,2.234021435E-3,-1.439896598E-2
6.795394365E0,-8.011061698E-3,2.321287990E-3,-1.820378378E-2
6.815395927E0,-7.173303049E-3,2.356194425E-3,-1.209513191E-2
6.835395927E0,-4.799655639E-3,3.560471581E-3,-1.745329238E-3
6.855394365E0,-1.710422686E-3,4.450589418E-3,1.033234876E-2
6.875394365E0,6.108652451E-4,-4.712388909E-4,1.780235767E-2
6.895394365E0,-6.981316983E-5,-4.886921961E-4,1.439896598E-2
6.915397490E0,1.745329209E-4,2.181661548E-3,4.258603323E-3
6.935394365E0,-9.075712296E-4,1.064650831E-3,-4.607669078E-3
6.955395927E0,-2.583087189E-3,5.235987483E-4,-9.965829551E-3
6.975395927E0,-1.466076588E-3,0.000000000E0,-8.115780540E-3
6.995394365E0,-7.679448463E-4,-3.316125658E-4,-4.118977115E-3
7.015395927E0,-6.457717973E-4,1.727875904E-3,-2.268928074E-4
7.035394365E0,-1.361356815E-3,2.338741207E-3,4.834562074E-3
7.055395927E0,-9.773843922E-4,7.853981806E-4,4.956734832E-3
7.075395927E0,3.665191471E-4,-1.221730490E-3,4.293509759E-3
7.095394365E0,1.937315450E-3,-8.901178953E-4,9.773843922E-4
7.115397490E0,2.321287990E-3,3.246312495E-3,1.396263367E-3
7.135395927E0,1.361356815E-3,6.632251199E-3,4.712388909E-4
7.155394365E0,1.169370604E-3,5.811946467E-3,1.570796361E-3
7.175394365E0,4.171337001E-3,4.468042869E-3,5.131267942E-3
7.195395927E0,3.822271014E-3,4.747295752E-3,6.318091881E-3
7.215395927E0,2.094395168E-4,2.530727303E-3,1.466076588E-3
7.235394365E0,-1.745329238E-3,-6.108652451E-4,-1.169370604E-3
7.255394365E0,-4.363323096E-4,-4.363323096E-3,-3.647738136E-3
7.275395927E0,1.815142459E-3,-2.443460980E-3,-4.590216093E-3
7.295394365E0,1.518436475E-3,1.169370604E-3,-3.665191354E-3
7.315395927E0,9.773843922E-4,-2.443460980E-4,-1.082104165E-3
7.335395927E0,1.047197497E-3,-1.448623254E-3,3.630284918E-3
7.355394365E0,-1.047197584E-4,-1.500983140E-3,9.634217247E-3
7.375394365E0,9.599310579E-4,-8.726646192E-4,8.237954229E-3
7.395394365E0,2.181661548E-3,2.443460980E-3,5.427973811E-3
7.415397490E0,3.403391922E-3,4.223696887E-3,-9.773843922E-4
7.435394365E0,1.256637042E-3,5.044001620E-3,-9.512044489E-3
7.455395927E0,-7.155850180E-4,3.124139272E-3,-1.171115879E-2
7.475395927E0,-1.378810150E-3,2.617993858E-3,-6.405358203E-3
7.495394365E0,8.726646047E-5,1.151917269E-3,-4.014257283E-4
7.515395927E0,6.981316837E-4,-1.134464052E-3,3.455751808E-3
7.535394365E0,1.605702913E-3,-6.981316837E-4,4.660028964E-3
7.555395927E0,1.797689125E-3,1.291543595E-3,5.951572675E-3
7.575394365E0,2.478367416E-3,2.967059845E-4,3.333578818E-3
7.595394365E0,5.759586347E-4,-1.745329246E-5,3.246312495E-3
7.615397490E0,1.256637042E-3,1.378810150E-3,2.268928074E-4
7.635395927E0,-4.886921961E-4,2.426007763E-3,-1.588249579E-3
7.655394365E0,2.094395168E-4,1.640609466E-3,-3.193952609E-3
7.675394365E0,2.408554312E-3,4.886921961E-4,-3.106686054E-3
7.695395927E0,1.274090377E-3,1.099557383E-3,-2.617993858E-3
7.715395927E0,-1.570796303E-4,1.850049011E-3,-2.792526793E-4
7.735394365E0,-4.171337001E-3,2.670353744E-3,1.204277156E-3
7.755394365E0,-4.433136433E-3,1.291543595E-3,6.457717973E-4
7.775395927E0,-2.565633971E-3,1.745329246E-5,-1.082104165E-3
7.795394365E0,-3.490658492E-5,9.424777818E-4,-2.234021435E-3
7.815395927E0,1.919862116E-3,1.500983140E-3,-1.675516134E-3
7.835395927E0,2.862340072E-3,2.024581889E-3,-1.239183708E-3
7.855394365E0,-9.075712296E-4,1.343903481E-3,1.169370604E-3
7.875394365E0,-2.094394993E-3,5.044001620E-3,4.241149873E-3
7.895394365E0,-4.782202188E-3,2.705260413E-3,3.403391922E-3
7.915397490E0,-7.504915702E-4,-6.981316837E-4,1.954768784E-3
7.935394365E0,3.769911127E-3,2.164208330E-3,0.000000000E0
7.955395927E0,2.111848444E-3,2.129301662E-3,-3.211405827E-3
7.975397490E0,-1.815142459E-3,-9.424777818E-4,-6.143558770E-3
7.995394365E0,-2.495820867E-3,-6.841690745E-3,-6.736970972E-3
8.015395927E0,-2.094395168E-4,-6.370451767E-3,-5.096361507E-3
8.035394365E0,7.679448463E-4,-1.518436475E-3,-5.235987483E-4
8.055395927E0,4.136430100E-3,9.773843922E-4,1.884955564E-3
8.075394365E0,4.345869645E-3,-6.283185212E-4,3.333578818E-3
8.095394365E0,3.193952609E-3,-6.981316837E-4,7.801621687E-3
8.115397490E0,7.679448463E-4,-8.726646047E-5,7.539822254E-3
8.135395927E0,4.363323096E-4,-6.981316983E-5,2.722713631E-3
8.155394365E0,5.585053586E-4,2.164208330E-3,-3.089232836E-3
8.175394365E0,-9.250245057E-4,4.904375412E-3,-1.054178830E-2
8.195395927E0,-1.832595677E-3,2.426007763E-3,-1.319468953E-2
8.215395927E0,-1.413716702E-3,3.106686054E-3,-8.709193207E-3
8.235394365E0,-7.679448463E-4,2.321287990E-3,-5.061454722E-4
8.255394365E0,-6.457717973E-4,-1.186823938E-3,6.440265104E-3
8.275395927E0,-1.762782573E-3,-6.981316837E-4,7.452555932E-3
8.295394365E0,-1.588249579E-3,1.466076588E-3,4.328416660E-3
8.315395927E0,3.141592606E-4,2.268928103E-3,2.443460980E-4
8.335395927E0,2.268928074E-4,9.773843922E-4,-5.585053586E-4
8.355394365E0,1.588249579E-3,1.047197497E-3,-1.884955564E-3
8.375394365E0,3.490658419E-4,-1.274090377E-3,-5.724680144E-3
8.395394365E0,4.886921961E-4,-1.361356815E-3,-7.208209950E-3
8.415397490E0,1.117010717E-3,1.117010717E-3,-6.579891313E-3
8.435395927E0,6.981316983E-5,-3.490658419E-4,-3.630284918E-3
8.455394365E0,-1.029744279E-3,-1.326450263E-3,-5.759586347E-4
8.475395927E0,-1.221730490E-3,-5.410520826E-4,5.759586347E-4
8.495394365E0,5.759586347E-4,7.155850180E-4,1.937315450E-3
8.515395927E0,8.028514567E-4,-3.316125658E-4,2.356194425E-3
8.535394365E0,1.466076588E-3,-2.216568217E-3,-4.712388909E-4
8.555395927E0,1.064650831E-3,-3.054326167E-3,-4.171337001E-3
8.575394365E0,2.426007763E-3,-1.151917269E-3,-4.712388851E-3
8.595394365E0,1.012290944E-3,6.981316983E-5,-2.548180753E-3
8.615397490E0,-8.726646192E-4,3.141592606E-4,-8.726646192E-4
8.635395927E0,-5.061454722E-4,-1.326450263E-3,1.745329238E-3
8.655394365E0,1.762782573E-3,-1.012290944E-3,2.286381321E-3
8.675394365E0,3.141592606E-4,1.745329209E-4,-4.886921961E-4
8.695395927E0,-3.490658419E-4,-5.235987919E-5,-3.368485486E-3
8.715395927E0,-5.235987919E-5,-6.073745899E-3,-5.654866807E-3
8.735394365E0,1.884955564E-3,-7.714355364E-3,-6.754423957E-3
8.755394365E0,1.274090377E-3,-4.677482415E-3,-5.759586580E-3
8.775395927E0,2.460914198E-3,-4.834562074E-3,-3.368485486E-3
8.795394365E0,3.996803891E-3,-2.984513063E-3,-2.094395168E-4
8.815395927E0,4.136430100E-3,-3.106686054E-3,6.073745899E-3
8.835395927E0,1.431170036E-3,-2.321287990E-3,7.016223390E-3
8.855394365E0,2.443460980E-4,-2.687806962E-3,3.490658477E-3
8.875394365E0,1.396263397E-4,-8.901178953E-4,-1.867502346E-3
8.895394365E0,2.495820867E-3,9.075712296E-4,-6.894050632E-3
8.915397490E0,1.064650831E-3,2.443460980E-4,-8.796459064E-3
8.935395927E0,3.490658419E-4,2.129301662E-3,-7.452555932E-3
8.955394365E0,-4.886921961E-4,1.919862116E-3,-3.211405827E-3
8.975395927E0,-6.981316837E-4,-9.250245057E-4,-1.169370604E-3
8.995394365E0,2.426007763E-3,-1.361356815E-3,-6.981316983E-5
9.015395927E0,1.186823938E-3,-9.773843922E-4,3.839724232E-4
9.035394365E0,1.413716702E-3,6.981316983E-5,4.188790335E-4
9.055395927E0,9.424777818E-4,-1.204277156E-3,2.199114766E-3
9.075394365E0,-1.605702913E-3,-1.675516134E-3,3.193952609E-3
9.095394365E0,-1.919862116E-4,-3.839724232E-4,2.495820867E-3
9.115397490E0,-1.745329209E-4,5.585053586E-4,1.675516134E-3
9.135395927E0,-8.901178953E-4,8.552113432E-4,-1.745329209E-4
9.155394365E0,-1.518436475E-3,8.726646192E-4,-1.640609466E-3
9.175394365E0,-1.186823938E-3,6.981316837E-4,-3.909537569E-3
9.195395927E0,-4.537856148E-4,1.867502346E-3,-4.380776547E-3
9.215395927E0,-8.901178953E-4,2.268928074E-4,-2.670353744E-3
9.235394365E0,-1.902408898E-3,5.235987919E-5,-3.508111695E-3
9.255394365E0,-1.291543595E-3,-1.640609466E-3,-4.014257283E-4
9.275395927E0,1.047197584E-4,-6.283185212E-4,7.330382941E-4
9.295394365E0,-1.151917269E-3,2.635447076E-3,2.879793290E-3
9.315395927E0,-1.012290944E-3,2.809980186E-3,6.213372108E-3
9.335395927E0,-2.129301662E-3,7.679448463E-4,7.173303049E-3
9.355394365E0,-8.901178953E-4,2.199114766E-3,3.333578818E-3
9.375394365E0,-3.822271014E-3,-5.235987919E-5,-3.054326167E-3
9.395394365E0,-4.520402756E-3,-4.014257283E-4,-1.237438433E-2
9.415397490E0,-1.117010717E-3,-6.230825558E-3,-1.384046115E-2
9.435394365E0,1.204277156E-3,-3.804817796E-3,-9.721484035E-3
9.455394365E0,2.094395168E-4,1.902408898E-3,-2.565633971E-3
9.475395927E0,-3.071779385E-3,-2.949606394E-3,8.744099177E-3
9.495394365E0,-1.780235791E-3,-6.981316837E-4,1.630137488E-2
9.515395927E0,6.632251316E-4,-1.047197497E-3,1.837831736E-2
9.535394365E0,1.186823938E-3,6.283185212E-4,1.256637089E-2
9.555395927E0,2.268928074E-4,1.326450263E-3,1.099557383E-3
9.575394365E0,-9.599310579E-4,2.600540640E-3,-8.918632753E-3
9.595395927E0,-2.181661548E-3,3.909537569E-3,-1.530653704E-2
9.615397490E0,-2.670353744E-3,3.577925032E-3,-1.560324337E-2
9.635395927E0,-3.543018363E-3,2.478367416E-3,-7.592182141E-3
9.655394365E0,-4.555309191E-3,3.298672382E-3,7.330382941E-4
9.675394365E0,-3.508111695E-3,6.632251316E-4,8.168140426E-3
9.695395927E0,-1.535889693E-3,-1.745329209E-4,9.983283468E-3
9.715395927E0,1.047197584E-4,1.308996929E-3,6.248278543E-3
9.735394365E0,1.745329209E-4,1.867502346E-3,2.164208330E-3
9.755394365E0,-1.640609466E-3,-1.727875904E-3,-1.448623254E-3
9.775395927E0,-2.234021435E-3,-2.635447076E-3,-3.420845373E-3
9.795394365E0,-1.535889693E-3,-1.588249579E-3,-1.169370604E-3
9.815395927E0,-1.727875904E-3,-5.934119690E-4,-6.981316983E-5
9.835395927E0,-2.268928074E-4,2.216568217E-3,1.047197497E-3
9.855394365E0,-1.256637042E-3,1.919862116E-3,-1.919862116E-4
9.875394365E0,-7.330382941E-4,2.042035107E-3,-7.504915702E-4
9.895394365E0,-1.064650831E-3,2.495820867E-3,-1.291543595E-3
9.915397490E0,-2.635447076E-3,1.535889693E-3,-2.321287990E-3
9.935395927E0,-2.286381321E-3,-3.839724232E-4,-2.042035107E-3
9.955394365E0,-1.047197497E-3,-1.902408898E-3,-1.221730490E-3
9.975395927E0,1.815142459E-3,-1.605702913E-3,-9.599310579E-4
9.995394365E0,-1.745329209E-4,3.839724232E-4,1.047197584E-4
1.001539593E1,-2.164208330E-3,2.443460980E-3,1.308996929E-3
1.003539436E1,-3.665191471E-4,-9.773843922E-4,1.815142459E-3
1.005539593E1,1.239183708E-3,4.886921961E-4,3.961897455E-3
1.007539437E1,1.396263397E-4,2.408554312E-3,4.991641734E-3
1.009539436E1,-2.809980186E-3,3.054326167E-3,3.647738136E-3
1.011539749E1,-1.483529806E-3,-2.583087189E-3,6.108652451E-4
1.013539593E1,2.967059612E-3,-3.525565146E-3,-2.024581889E-3
1.015539437E1,6.928957067E-3,-1.064650831E-3,-3.089232836E-3
1.017539436E1,2.495820867E-3,-1.745329209E-4,-3.525565146E-3
1.019539593E1,2.094395168E-4,1.221730490E-4,-1.902408898E-3
1.021539593E1,1.256637042E-3,-5.235987919E-5,3.351032268E-3
1.023539437E1,2.094395168E-4,9.250245057E-4,9.704031050E-3
1.025539436E1,1.745329209E-4,1.413716702E-3,9.180432186E-3
1.027539593E1,-8.726646047E-5,2.007128671E-3,5.811946467E-3
1.029539436E1,-2.094395168E-4,4.188789986E-3,5.934119690E-4
1.031539593E1,-6.632251316E-4,3.892084118E-3,-4.974188283E-3
1.033539593E1,-3.054326167E-3,2.251474652E-3,-7.714355364E-3
1.035539436E1,-2.652900526E-3,8.203047328E-4,-9.040805511E-3
1.037539436E1,-2.635447076E-3,-2.443460980E-4,-4.206243437E-3
1.039539437E1,-6.806784077E-4,-9.599310579E-4,-4.014257283E-4
1.041539749E1,1.047197584E-4,4.188790335E-4,1.692969352E-3
1.043539593E1,2.967059845E-4,2.757620299E-3,2.076941775E-3
1.045539436E1,-9.250245057E-4,2.687806962E-3,4.206243437E-3
1.047539593E1,-1.919862116E-3,-7.504915702E-4,3.874630900E-3
1.049539437E1,-9.599310579E-4,-1.518436475E-3,2.652900526E-3
1.051539593E1,-1.710422686E-3,9.599310579E-4,-5.235987919E-5
1.053539436E1,-1.535889693E-3,1.326450263E-3,-6.283185212E-4
1.055539593E1,-2.094394993E-3,7.679448463E-4,-2.740166849E-3
1.057539437E1,1.221730490E-4,-4.886921961E-4,-6.649704650E-3
1.059539436E1,3.141592606E-4,-8.552113432E-4,-5.759586580E-3
1.061539749E1,1.326450263E-3,-1.570796303E-4,-2.984513063E-3
1.063539593E1,-6.632251316E-4,8.552113432E-4,1.012290944E-3
1.065539437E1,-4.729842301E-3,8.377580671E-4,5.724680144E-3
1.067539436E1,-2.460914198E-3,4.886921961E-4,5.969026126E-3
1.069539593E1,2.268928074E-4,7.155850180E-4,4.223696887E-3
1.071539593E1,2.286381321E-3,7.853981806E-4,2.199114766E-3
1.073539437E1,7.679448463E-4,2.775073517E-3,-8.726646192E-4
1.075539436E1,-1.745329246E-5,3.141592606E-4,-4.485496320E-3
1.077539593E1,1.221730490E-4,1.117010717E-3,-2.617993858E-3
1.079539593E1,1.919862116E-4,1.727875904E-3,-2.094395168E-4
1.081539593E1,-2.809980186E-3,1.029744279E-3,2.443460980E-4
1.083539593E1,-3.804817796E-3,-1.308996929E-3,7.504915702E-4
1.085539436E1,-7.155850180E-4,-5.567600485E-3,-5.934119690E-4
1.087539436E1,1.448623254E-3,-3.926991019E-3,-1.588249579E-3
1.089539437E1,5.410520826E-4,-2.076941775E-3,-1.117010717E-3
1.091539749E1,8.901178953E-4,-3.071779385E-3,1.047197497E-3
1.093539436E1,4.886921961E-4,3.141592606E-4,5.550147034E-3
1.095539436E1,-6.108652451E-4,1.745329209E-4,9.162978269E-3
1.097539593E1,-3.665191471E-4,0.000000000E0,9.791296907E-3
1.099539437E1,-2.094395168E-4,1.012290944E-3,4.520402756E-3
1.101539593E1,-5.235987919E-5,2.617993741E-4,-1.902408898E-3
1.103539436E1,5.235987483E-4,2.303834539E-3,-9.110618383E-3
1.105539593E1,-2.583087189E-3,1.047197497E-3,-1.221730467E-2
1.107539437E1,-4.171337001E-3,7.330382941E-4,-9.250245057E-3
1.109539436E1,-4.345869645E-3,-1.291543595E-3,-2.809980186E-3
1.111539749E1,-4.817108624E-3,-1.204277156E-3,2.007128671E-3
1.113539593E1,-9.424777818E-4,-9.599310579E-4,6.283185445E-3
1.115539437E1,1.570796303E-4,1.186823938E-3,7.801621687E-3
1.117539436E1,-3.665191471E-4,-8.377580671E-4,2.722713631E-3
1.119539593E1,-1.117010717E-3,-2.600540640E-3,-6.283185212E-4
1.121539593E1,-2.251474652E-3,-4.345869645E-3,-5.532693584E-3
1.123539437E1,-6.981316983E-5,-3.647738136E-3,-8.342674002E-3
1.125539436E1,5.934119690E-4,-3.560471581E-3,-5.462880712E-3
1.127539593E1,2.792526793E-4,-1.361356815E-3,-2.949606394E-3
1.129539436E1,9.599310579E-4,-1.500983140E-3,2.617993741E-4
1.131539593E1,5.759586347E-4,-2.617993741E-4,2.722713631E-3
1.133539593E1,4.363323096E-4,1.989675453E-3,2.495820867E-3
1.135539436E1,1.745329209E-4,2.286381321E-3,2.583087189E-3
1.137539436E1,-4.118977115E-3,2.094394993E-3,-1.117010717E-3
1.139539437E1,-3.263765713E-3,-5.410520826E-4,-1.553343027E-3
1.141539593E1,-5.759586347E-4,-5.934119690E-4,-1.099557383E-3
1.143539436E1,4.468042869E-3,7.155850180E-4,7.330382941E-4
1.145539436E1,2.408554312E-3,2.984513063E-3,4.660028964E-3
1.147539593E1,3.316125658E-4,3.926991019E-3,4.241149873E-3
1.149539437E1,-2.478367416E-3,8.552113432E-4,5.724680144E-3
1.151539593E1,2.652900526E-3,2.076941775E-3,6.283185445E-3
1.153539436E1,4.345869645E-3,2.373647876E-3,2.914699726E-3
1.155539593E1,1.553343027E-3,3.543018363E-3,-2.914699726E-3
1.157539437E1,-2.687806962E-3,-8.901178953E-4,-7.278022822E-3
1.159539436E1,-1.623156248E-3,-4.607669078E-3,-4.869468510E-3
1.161539436E1,1.221730490E-4,-4.520402756E-3,-1.902408898E-3
1.163539593E1,6.981316983E-5,-2.303834539E-3,4.188790335E-4
1.165539593E1,2.617993741E-4,-1.500983140E-3,1.762782573E-3
1.167539436E1,1.047197584E-4,-2.652900526E-3,3.351032268E-3
1.169539593E1,-1.326450263E-3,-3.316125600E-3,4.084070213E-3
1.171539593E1,-1.972222002E-3,-2.967059612E-3,1.745329238E-3
1.173539437E1,-7.330382941E-4,-2.635447076E-3,-5.061454722E-4
1.175539593E1,-8.028514567E-4,6.981316837E-4,-4.502949305E-3
1.177539593E1,-1.134464052E-3,3.490658477E-3,-7.993607782E-3
1.179539436E1,-3.473205259E-3,4.171337001E-3,-9.110618383E-3
1.181539593E1,-4.031710327E-3,1.151917269E-3,-6.335545331E-3
1.183539593E1,-1.500983140E-3,6.806784077E-4,-3.316125658E-4
1.185539436E1,7.679448463E-4,2.460914198E-3,1.675516134E-3
1.187539436E1,2.094395168E-4,6.283185212E-4,3.857177682E-3
1.189539437E1,-1.570796303E-4,7.155850180E-4,4.904375412E-3
1.191539749E1,-1.396263397E-4,-9.424777818E-4,4.590216093E-3
1.193539436E1,1.256637042E-3,6.981316983E-5,6.370451767E-3
1.195539436E1,4.101523664E-3,1.221730490E-3,4.101523664E-3
1.197539593E1,2.094394993E-3,2.478367416E-3,3.298672382E-3
1.199539437E1,-6.108652451E-4,2.809980186E-3,1.448623254E-3
1.201539593E1,-2.583087189E-3,3.944444004E-3,-3.019419499E-3
1.203539436E1,-3.124139272E-3,0.000000000E0,-6.911503617E-3
1.205539593E1,-1.099557383E-3,1.413716702E-3,-9.459684603E-3
1.207539437E1,-6.457717973E-4,4.729842301E-3,-6.963863503E-3
1.209539436E1,-4.817108624E-3,3.717551241E-3,-2.426007763E-3
1.211539593E1,-6.510077976E-3,2.670353744E-3,1.029744279E-3
1.213539593E1,-5.654866807E-3,1.396263367E-3,3.839724232E-3
1.215539437E1,-1.291543595E-3,2.199114766E-3,3.735004691E-3
1.217539436E1,1.727875904E-3,1.780235791E-3,1.466076588E-3
1.219539593E1,2.356194425E-3,-1.745329246E-5,-7.330382941E-4
1.221539593E1,8.726646047E-5,1.937315450E-3,-4.188789986E-3
1.223539437E1,-1.134464052E-3,-8.028514567E-4,-3.001966281E-3
1.225539436E1,2.024581889E-3,-1.745329209E-4,-2.268928074E-4
1.227539593E1,4.310963210E-3,2.530727303E-3,5.759586347E-4
1.229539436E1,-8.726646047E-5,-2.617993741E-4,1.169370604E-3
1.231539593E1,-2.792526735E-3,-1.221730490E-3,5.235987483E-4
1.233539593E1,-1.326450263E-3,-5.550147034E-3,3.316125600E-3
1.235539593E1,1.710422686E-3,-4.363323096E-3,2.356194425E-3
1.237539436E1,3.019419499E-3,-4.694935866E-3,-7.330382941E-4
1.239539437E1,1.343903481E-3,-1.186823938E-3,-3.665191354E-3
1.241539749E1,1.082104165E-3,-2.356194425E-3,-1.274090377E-3
1.243539436E1,-3.141592606E-4,-6.981316837E-4,1.221730490E-4
1.245539436E1,-9.250245057E-4,5.585053586E-4,1.780235791E-3
1.247539593E1,4.363323096E-4,-5.585053586E-4,1.151917269E-3
1.249539593E1,1.047197584E-4,-3.490658492E-5,-2.967059845E-4
1.251539593E1,-6.806784077E-4,1.850049011E-3,-5.288347602E-3
1.253539436E1,-3.316125658E-4,3.124139272E-3,-7.679448463E-3
1.255539593E1,6.108652451E-4,1.937315450E-3,-3.857177682E-3
1.257539437E1,1.047197497E-3,1.710422686E-3,-1.466076588E-3
1.259539436E1,1.117010717E-3,-6.283185212E-4,1.186823938E-3
1.261539436E1,1.274090377E-3,-2.199114766E-3,1.029744279E-3
1.263539593E1,1.221730490E-4,-1.745329238E-3,1.658062800E-3
1.265539437E1,3.141592606E-4,-1.972222002E-3,1.274090377E-3
1.267539436E1,1.937315450E-3,-3.787364578E-3,7.853981806E-4
1.269539593E1,1.413716702E-3,-1.308996929E-3,3.490658492E-5
1.271539593E1,2.967059845E-4,-7.504915702E-4,-1.588249579E-3
1.273539437E1,-2.094395168E-4,-1.972222002E-3,-1.047197497E-3
1.275539436E1,-7.330382941E-4,-2.216568217E-3,-4.485496320E-3
1.277539593E1,-2.059488557E-3,-3.839724232E-3,-8.848818950E-3
1.279539436E1,0.000000000E0,-3.193952609E-3,-1.089085452E-2
1.281539593E1,2.268928074E-4,-1.291543595E-3,-8.220500313E-3
1.283539593E1,2.268928074E-4,-3.316125658E-4,-1.884955564E-3
1.285539436E1,-2.757620299E-3,-1.431170036E-3,3.193952609E-3
1.287539436E1,-3.141592722E-3,-1.396263367E-3,4.398229532E-3
1.289539437E1,8.726646047E-5,-1.902408898E-3,2.722713631E-3
1.291539749E1,1.570796361E-3,-1.308996929E-3,-5.061454722E-4
1.293539436E1,3.071779385E-3,2.967059845E-4,-3.944444004E-3
1.295539436E1,1.378810150E-3,-3.543018363E-3,-2.914699726E-3
1.297539593E1,3.560471581E-3,-2.234021435E-3,-2.495820867E-3
1.299539593E1,2.199114766E-3,-1.151917269E-3,-3.839724232E-4
1.301539593E1,-1.710422686E-3,-8.726646047E-5,-1.570796303E-4
1.303539436E1,1.343903481E-3,-3.909537569E-3,-1.274090377E-3
1.305539593E1,2.321287990E-3,-7.976154797E-3,-2.181661548E-3
1.307539437E1,2.303834539E-3,-6.335545331E-3,-4.223696887E-3
1.309539436E1,9.250245057E-4,-4.380776547E-3,-2.094394993E-3
1.311539593E1,2.268928074E-4,-2.565633971E-3,1.780235791E-3
1.313539593E1,2.007128671E-3,-1.989675453E-3,6.597344764E-3
1.315539437E1,2.076941775E-3,-3.089232836E-3,7.243116386E-3
1.317539436E1,2.268928074E-4,-2.373647876E-3,1.274090377E-3
1.319539593E1,2.268928103E-3,-1.204277156E-3,-5.480333697E-3
1.321539593E1,4.886921961E-4,9.075712296E-4,-9.354964830E-3
1.323539437E1,-3.490658492E-5,1.884955564E-3,-1.122246683E-2
1.325539436E1,-1.937315450E-3,-8.203047328E-4,-8.203047328E-3
1.327539593E1,-7.330382941E-4,-9.599310579E-4,-4.118977115E-3
1.329539593E1,5.235987483E-4,-1.710422686E-3,0.000000000E0
1.331539593E1,5.061454722E-4,-9.773843922E-4,3.420845373E-3
1.333539593E1,-6.108652451E-4,2.583087189E-3,4.520402756E-3
1.335539436E1,-5.515240598E-3,3.036872949E-3,4.223696887E-3
1.337539436E1,-5.689773243E-3,-8.203047328E-4,1.291543595E-3
1.339539437E1,-2.268928103E-3,-1.186823938E-3,2.617993741E-4
1.341539749E1,1.117010717E-3,2.792526793E-4,-2.967059845E-4
1.343539436E1,5.410520826E-4,1.902408898E-3,-2.286381321E-3
1.345539436E1,0.000000000E0,2.059488557E-3,-2.775073517E-3
1.347539593E1,-1.378810150E-3,4.712388909E-4,-5.410520826E-4
1.349539593E1,-7.504915702E-4,-4.537856148E-4,2.792526793E-4
1.351539593E1,1.919862116E-4,1.727875904E-3,3.543018363E-3
1.353539436E1,-3.490658492E-5,2.373647876E-3,3.141592722E-3
1.355539593E1,-1.500983140E-3,2.897246508E-3,5.934119690E-4
1.357539437E1,-2.251474652E-3,6.108652451E-4,1.047197584E-4
1.359539436E1,-1.780235791E-3,7.853981806E-4,-8.726646047E-5
1.361539436E1,-3.316125658E-4,4.258603323E-3,1.204277156E-3
1.363539593E1,-6.632251316E-4,4.014257342E-3,2.862340072E-3
1.365539437E1,-1.500983140E-3,1.884955564E-3,2.216568217E-3
1.367539436E1,-6.108652451E-4,3.595378250E-3,1.343903481E-3
1.369539593E1,-2.897246508E-3,-5.934119690E-4,-4.363323096E-4
1.371539593E1,-2.914699726E-3,1.570796303E-4,-4.607669078E-3
1.373539437E1,8.726646047E-5,-4.799655639E-3,-4.590216093E-3
1.375539436E1,3.124139272E-3,-1.378810150E-3,-7.679448463E-4
1.377539593E1,-1.047197584E-4,1.169370604E-3,1.204277156E-3
1.379539593E1,-4.014257342E-3,-3.490658419E-4,1.431170036E-3
1.381539593E1,-2.059488557E-3,-7.155850180E-4,4.764748737E-3
1.383539593E1,1.850049011E-3,2.268928074E-4,9.407324716E-3
1.385539436E1,3.874630900E-3,1.989675453E-3,8.552113548E-3
1.387539436E1,1.047197497E-3,3.612831468E-3,3.595378250E-3
1.389539437E1,-4.886921961E-4,4.206243437E-3,-1.692969352E-3
1.391539749E1,-4.276056774E-3,4.223696887E-3,-6.928957067E-3
1.393539436E1,-4.537856206E-3,2.338741207E-3,-8.604473434E-3
1.395539436E1,-2.478367416E-3,3.228859045E-3,-5.462880712E-3
1.397539593E1,-6.981316983E-5,2.338741207E-3,-8.552113432E-4
1.399539593E1,3.490658492E-5,1.361356815E-3,2.111848444E-3
1.401539593E1,-2.757620299E-3,2.949606394E-3,2.809980186E-3
1.403539436E1,-2.059488557E-3,3.525565146E-3,3.281218931E-3
1.405539593E1,-2.652900526E-3,1.500983140E-3,3.769911127E-3
1.407539437E1,-2.321287990E-3,-3.141592606E-4,6.108652451E-4
1.409539593E1,-1.361356815E-3,-1.134464052E-3,-1.256637042E-3
1.411539593E1,-1.710422686E-3,-9.424777818E-4,-2.216568217E-3
1.413539593E1,-1.989675453E-3,-9.075712296E-4,-3.473205259E-3
1.415539437E1,-5.235987483E-4,9.948377265E-4,-1.012290944E-3
1.417539436E1,-1.291543595E-3,9.599310579E-4,2.042035107E-3
1.419539593E1,-1.692969352E-3,2.478367416E-3,2.862340072E-3
1.421539593E1,-3.822271014E-3,9.250245057E-4,6.457717973E-4
1.423539437E1,-4.450589418E-3,1.553343027E-3,-8.901178953E-4
1.425539436E1,-2.844886621E-3,5.410520826E-4,-3.054326167E-3
1.427539593E1,-3.316125658E-4,-9.948377265E-4,-1.483529806E-3
1.429539593E1,7.504915702E-4,-2.268928103E-3,-1.745329246E-5
1.431539593E1,3.141592606E-4,-7.330382941E-4,1.640609466E-3
1.433539593E1,-1.780235791E-3,2.984513063E-3,1.762782573E-3
1.435539436E1,-3.961897455E-3,1.117010717E-3,1.588249579E-3
1.437539593E1,-1.082104165E-3,-5.759586347E-4,4.014257283E-4
1.439539437E1,1.570796361E-3,1.675516134E-3,1.308996929E-3
1.441539593E1,-6.806784077E-4,1.745329246E-5,-5.759586347E-4
1.443539436E1,-4.293509759E-3,0.000000000E0,-3.612831468E-3
1.445539436E1,-4.276056774E-3,-4.747295752E-3,-1.239183708E-3
1.447539593E1,-1.431170036E-3,-4.502949305E-3,-3.665191471E-4
1.449539593E1,-6.108652451E-4,-2.862340072E-3,1.029744279E-3
1.451539593E1,3.490658492E-5,-1.518436475E-3,-1.047197584E-4
1.453539436E1,3.665191471E-4,-1.256637042E-3,2.792526793E-4
1.455539593E1,1.029744279E-3,-8.203047328E-4,3.089232836E-3
1.457539437E1,1.570796303E-4,8.377580671E-4,6.108652335E-3
1.459539436E1,0.000000000E0,-8.901178953E-4,4.974188283E-3
1.461539436E1,-2.094394993E-3,-1.396263397E-4,1.745329209E-4
1.463539593E1,-2.321287990E-3,4.101523664E-3,-2.844886621E-3
1.465539437E1,-2.007128671E-3,5.759586580E-3,-6.911503617E-3
1.467539436E1,-2.792526735E-3,4.380776547E-3,-6.335545331E-3
1.469539593E1,-3.525565146E-3,2.879793290E-3,-3.717551241E-3
1.471539593E1,-2.879793290E-3,1.064650831E-3,-1.431170036E-3
1.473539437E1,-1.378810150E-3,-5.585053586E-4,1.047197584E-4
1.475539436E1,-3.839724232E-4,-4.886921961E-4,5.934119690E-4
1.477539593E1,1.221730490E-4,-8.203047328E-4,2.862340072E-3
1.479539593E1,4.363323096E-4,-3.822271014E-3,4.817108624E-3
1.481539593E1,-2.094395168E-4,-3.665191354E-3,3.281218931E-3
1.483539593E1,-4.188790335E-4,-2.356194425E-3,4.188790335E-4
1.485539436E1,-7.504915702E-4,-2.321287990E-3,-1.396263397E-4
1.487539437E1,-3.665191471E-4,-2.565633971E-3,-1.518436475E-3
1.489539437E1,-1.151917269E-3,-3.717551241E-3,-5.131267942E-3
1.491539749E1,-1.396263367E-3,-3.001966281E-3,-9.669124149E-3
1.493539436E1,-3.316125658E-4,-9.250245057E-4,-8.709193207E-3
1.495539436E1,-1.745329209E-4,2.967059845E-4,-6.265731994E-3
1.497539593E1,-1.570796361E-3,-7.504915702E-4,-2.251474652E-3
1.499539593E1,-2.827433404E-3,-1.134464052E-3,8.552113432E-4
1.501539593E1,-1.308996929E-3,-5.410520826E-4,3.455751808E-3
1.503539436E1,1.256637042E-3,-5.585053586E-4,6.632251199E-3
1.505539593E1,-2.268928074E-4,-5.759586347E-4,5.410520826E-3
1.507539437E1,-3.089232836E-3,3.490658419E-4,6.981316983E-5
1.509539436E1,-2.111848444E-3,-1.762782573E-3,-1.884955564E-3
1.511539593E1,1.117010717E-3,-1.518436475E-3,-2.740166849E-3
1.513539593E1,1.954768784E-3,-5.061454722E-4,-1.989675453E-3
1.515539437E1,-1.867502346E-3,1.117010717E-3,-2.111848444E-3
1.517539436E1,-4.642575979E-3,-2.216568217E-3,-2.914699726E-3
1.519539593E1,-1.588249579E-3,-4.642575979E-3,1.151917269E-3
1.521539593E1,5.585053586E-4,-4.537856206E-3,1.518436475E-3
1.523539437E1,-1.291543595E-3,-1.064650831E-3,-1.221730490E-4
1.525539436E1,3.490658492E-5,-6.632251316E-4,-2.268928103E-3
1.527539593E1,2.583087189E-3,-1.972222002E-3,-8.552113432E-4
1.529539593E1,3.368485486E-3,-1.989675453E-3,2.216568217E-3
1.531539593E1,2.967059845E-4,1.396263397E-4,3.665191354E-3
1.533539593E1,-9.599310579E-4,2.827433404E-3,5.131267942E-3
1.535539436E1,-4.328416660E-3,5.410520826E-3,4.572762642E-3
1.537539437E1,-2.234021435E-3,2.809980186E-3,-7.853981806E-4
1.539539437E1,-2.129301662E-3,2.426007763E-3,-5.811946467E-3
1.541539593E1,3.490658419E-4,1.937315450E-3,-4.799655639E-3
1.543539436E1,-1.047197584E-4,9.250245057E-4,-2.268928103E-3
1.545539436E1,-2.164208330E-3,-9.250245057E-4,-1.012290944E-3
1.547539593E1,-6.457717973E-4,-2.617993741E-4,-4.537856148E-4
1.549539593E1,-1.239183708E-3,1.186823938E-3,-5.061454722E-4
1.551539593E1,-2.024581889E-3,-5.235987919E-5,-1.570796303E-4
1.553539436E1,8.726646047E-5,-2.286381321E-3,0.000000000E0
1.555539593E1,1.221730490E-4,-1.012290944E-3,-6.632251316E-4
1.557539437E1,1.919862116E-4,2.268928074E-4,-4.537856148E-4
1.559539436E1,1.396263397E-4,6.457717973E-4,2.617993741E-4
1.561539593E1,-2.792526793E-4,-1.047197584E-4,6.981316983E-5
1.563539593E1,-8.901178953E-4,1.570796303E-4,3.316125658E-4
1.565539437E1,4.363323096E-4,6.283185212E-4,1.518436475E-3
1.567539436E1,2.199114766E-3,2.844886621E-3,8.552113432E-4
1.569539593E1,2.583087189E-3,3.647738136E-3,-4.537856148E-4
1.571539593E1,8.028514567E-4,3.246312495E-3,-8.726646192E-4
1.573539437E1,-3.141592606E-4,2.338741207E-3,1.047197584E-4
1.575539436E1,1.640609466E-3,2.146754880E-3,2.548180753E-3
1.577539593E1,2.548180753E-3,3.508111695E-3,3.787364578E-3
1.579539437E1,2.268928074E-4,2.286381321E-3,2.111848444E-3
1.581539593E1,-2.513274085E-3,3.577925032E-3,-2.617993741E-4
1.583539749E1,-2.111848444E-3,-1.396263397E-4,-1.029744279E-3
1.585539436E1,1.640609466E-3,6.108652451E-4,1.710422686E-3
1.587539437E1,1.117010717E-3,2.007128671E-3,3.438298590E-3
1.589539437E1,-2.251474652E-3,-3.665191471E-4,4.886921961E-4
1.591539749E1,-6.213372108E-3,-2.059488557E-3,-1.553343027E-3
1.593539436E1,-7.853981806E-4,-6.422811653E-3,-2.286381321E-3
1.595539437E1,2.164208330E-3,-3.298672382E-3,-3.735004691E-3
1.597539593E1,2.809980186E-3,-1.989675453E-3,-4.642575979E-3
1.599539593E1,6.457717973E-4,-6.806784077E-4,-2.373647876E-3
1.601539593E1,-4.886921961E-4,-2.042035107E-3,4.014257283E-4
1.603539437E1,2.443460980E-4,-7.504915702E-4,4.694935866E-3
1.605539593E1,-5.410520826E-4,-1.047197497E-3,3.822271014E-3
1.607539436E1,-9.948377265E-4,-1.919862116E-3,1.466076588E-3
1.609539436E1,-6.283185212E-4,-1.954768784E-3,-2.600540640E-3
1.611539593E1,-6.283185212E-4,5.235987919E-5,-8.185594343E-3
1.613539593E1,-8.552113432E-4,-9.075712296E-4,-1.139700040E-2
1.615539436E1,-1.658062800E-3,-6.283185212E-4,-6.405358203E-3
1.617539437E1,-8.901178953E-4,-1.291543595E-3,1.483529806E-3
1.619539593E1,-1.570796303E-4,-6.806784077E-4,5.183627829E-3
1.621539593E1,-1.483529806E-3,5.934119690E-4,4.625122529E-3
1.623539436E1,-2.443460980E-3,2.914699726E-3,2.164208330E-3
1.625539436E1,-1.291543595E-3,5.235987919E-5,-1.745329209E-4
1.627539593E1,-1.378810150E-3,-2.879793290E-3,-2.617993858E-3
1.629539436E1,-4.537856148E-4,-8.726646047E-5,-5.235987715E-3
1.631539593E1,3.979350906E-3,1.919862116E-3,-3.752457909E-3
1.633539593E1,6.440265104E-3,-6.981316983E-5,-5.759586347E-4
1.635539437E1,6.562437862E-3,-1.186823938E-3,-2.303834539E-3
1.637539437E1,1.780235791E-3,1.396263397E-4,-1.832595677E-3
1.639539436E1,3.839724232E-4,3.665191471E-4,-7.330382941E-4
1.641539749E1,2.216568217E-3,-8.901178953E-4,2.775073517E-3
1.643539436E1,4.188789986E-3,-1.884955564E-3,5.777040031E-3
1.645539436E1,1.850049011E-3,-2.129301662E-3,3.298672382E-3
1.647539593E1,-5.235987483E-4,1.256637042E-3,-4.537856148E-4
1.649539593E1,-2.495820867E-3,7.155850180E-4,-7.504915819E-3
1.651539593E1,7.155850180E-4,-2.338741207E-3,-8.726646192E-3
1.653539437E1,5.585053470E-3,-1.343903481E-3,-4.729842301E-3
1.655539593E1,5.619960371E-3,-8.377580671E-4,-2.740166849E-3
1.657539436E1,7.330382941E-4,-4.572762642E-3,-9.948377265E-4
1.659539436E1,1.972222002E-3,-1.588249579E-3,-4.345869645E-3
1.661539593E1,2.234021435E-3,-1.815142459E-3,-5.654866807E-3
1.663539593E1,2.652900526E-3,-1.745329209E-4,-7.557275705E-3
1.665539436E1,-1.029744279E-3,-1.745329246E-5,-7.330382708E-3
1.667539437E1,-6.457718089E-3,4.450589418E-3,8.499753661E-3
1.669539593E1,-5.305801053E-3,5.009094719E-3,2.707005665E-2
1.671539593E1,6.981316983E-5,-1.356120780E-2,3.645992652E-2
1.673539436E1,6.911503617E-3,-2.375393175E-2,1.469567232E-2
1.675539436E1,1.087340154E-2,-1.862266287E-2,-2.012364566E-2
1.677539593E1,1.401499379E-2,-6.719517522E-3,-3.837978840E-2
1.679539593E1,1.336922217E-2,6.457717973E-4,-3.145083413E-2
1.681539593E1,9.773843922E-4,1.937315450E-3,-2.087413706E-2
1.683539593E1,-1.174606569E-2,5.410520826E-4,-7.260569837E-3
1.685539437E1,-1.265363675E-2,8.045967668E-3,7.784168236E-3
1.687539437E1,3.700098023E-3,6.719517522E-3,2.059488557E-2
1.689539436E1,8.307767101E-3,1.570796361E-3,2.734931000E-2
1.691539749E1,-5.689773243E-3,-6.597344764E-3,2.216568217E-2
1.693539436E1,-1.141445339E-2,-6.981316837E-4,3.961897455E-3
1.695539436E1,-4.625122529E-3,-2.024581889E-3,-1.300270297E-2
1.697539593E1,7.155850064E-3,-3.141592606E-4,-2.719222941E-2
1.699539593E1,1.466076542E-2,1.186823938E-3,-2.345722541E-2
1.701539593E1,1.148426626E-2,5.794493016E-3,-2.426007763E-3
1.703539437E1,-2.094395168E-4,9.808750823E-3,2.429498360E-2
1.705539593E1,-1.521927118E-2,1.047197543E-2,3.666936606E-2
1.707539436E1,-1.905899495E-2,6.981316837E-4,2.450442314E-2
1.709539436E1,-7.190756500E-3,-7.330382941E-4,-1.022762898E-2
1.711539593E1,1.034980267E-2,-6.352998316E-3,-4.176572710E-2
1.713539593E1,1.815142483E-2,-1.692969352E-3,-4.632103816E-2
1.715539436E1,1.012290921E-2,-5.759586347E-4,-2.577851340E-2
1.717539437E1,-8.237954229E-3,3.665191471E-4,7.906341925E-3
1.719539593E1,-2.145009674E-2,-1.745329246E-5,3.262020275E-2
1.721539593E1,-1.380555425E-2,-4.136430100E-3,3.682644665E-2
1.723539436E1,2.216568217E-3,-3.926991019E-3,2.614503168E-2
1.725539436E1,1.099557430E-2,2.391101094E-3,6.492624991E-3
1.727539593E1,1.832595677E-3,5.934119690E-4,-1.085594762E-2
1.729539436E1,-6.178465672E-3,-4.363323096E-4,-1.991420612E-2
1.731539593E1,-1.110029407E-2,-1.570796303E-4,-2.228785492E-2
1.733539749E1,-1.115265395E-2,-5.759586347E-4,-2.015855350E-2
1.735539437E1,-4.188790335E-4,-2.216568217E-3,-1.134464052E-2
1.737539437E1,4.764748737E-3,-7.400196046E-3,1.082104165E-3
1.739539436E1,1.483529806E-3,-4.363323096E-4,1.261873078E-2
1.741539749E1,-4.886921961E-3,3.647738136E-3,1.926843449E-2
1.743539436E1,-6.754423957E-3,2.443460980E-3,1.761037298E-2
1.745539436E1,-3.176499158E-3,2.495820867E-3,1.516691130E-2
1.747539436E1,1.221730490E-3,1.710422686E-3,8.011061698E-3
1.749539593E1,2.234021435E-3,1.570796303E-4,-1.745329246E-5
1.751539593E1,-2.792526793E-4,2.426007763E-3,-5.777040031E-3
1.753539437E1,-4.869468510E-3,4.799655639E-3,-8.813912980E-3
1.755539749E1,-4.258603323E-3,8.028514683E-3,-9.721484035E-3
1.757539436E1,-2.635447076E-3,6.091198884E-3,-6.178465672E-3
1.759539436E1,-7.853981806E-4,5.305801053E-3,-6.632251316E-4
1.761539593E1,8.726646047E-5,3.979350906E-3,2.879793290E-3
1.763539593E1,-6.283185212E-4,1.308996929E-3,4.520402756E-3
1.765539436E1,-2.426007763E-3,1.972222002E-3,7.225662936E-3
1.767539437E1,-3.612831468E-3,3.159045940E-3,6.143558770E-3
1.769539593E1,-1.553343027E-3,-1.745329238E-3,3.473205259E-3
1.771539593E1,5.934119690E-4,-5.899212789E-3,-5.934119690E-4
1.773539436E1,3.089232836E-3,-6.719517522E-3,-3.176499158E-3
1.775539436E1,8.377580671E-4,-1.605702913E-3,-2.478367416E-3
1.777539593E1,-4.153883550E-3,0.000000000E0,-9.075712296E-4
1.779539436E1,-9.005898610E-3,-9.250245057E-4,-2.757620299E-3
1.781539593E1,-9.913469665E-3,-9.948377265E-4,-5.218534265E-3
1.783539593E1,-4.014257342E-3,-7.330382941E-4,-4.991641734E-3
1.785539437E1,2.129301662E-3,3.839724232E-4,-3.804817796E-3
1.787539437E1,3.438298590E-3,2.879793290E-3,-4.537856148E-4
1.789539436E1,-1.675516134E-3,6.161012221E-3,4.223696887E-3
1.791539749E1,-9.826203808E-3,2.792526793E-4,7.051130291E-3
1.793539436E1,-1.249655709E-2,-1.867502346E-3,2.897246508E-3
1.795539436E1,-6.928957067E-3,-2.844886621E-3,-2.129301662E-3
1.797539436E1,3.054326167E-3,5.270894151E-3,4.886921961E-4
1.799539593E1,9.023352526E-3,9.023352526E-3,1.368338149E-2
1.801539593E1,-4.433136433E-3,8.604473434E-3,2.073451132E-2
1.803539437E1,-2.347467840E-2,1.431170036E-3,6.440265104E-3
1.805539593E1,-2.438225038E-2,-8.342674002E-3,-2.427753061E-2
1.807539436E1,-2.984513063E-3,-4.607669078E-3,-5.223770440E-2
1.809539436E1,1.218239777E-2,-2.094395168E-4,-5.726425350E-2
1.811539593E1,7.278022822E-3,-4.363323096E-4,-3.504621238E-2
1.813539593E1,-8.604473434E-3,-8.639379404E-3,-8.726646047E-5
1.815539593E1,-1.331686229E-2,-4.886921961E-3,3.337069601E-2
1.817539437E1,-5.881759338E-3,1.727875904E-3,4.974188283E-2
1.819539593E1,4.991641734E-3,2.251474652E-3,4.569271952E-2
1.821539593E1,1.052433532E-2,1.745329209E-4,2.076941729E-2
1.823539436E1,2.146754880E-3,-1.326450263E-3,-1.169370580E-2
1.825539436E1,-4.886921961E-4,4.991641734E-3,-3.394665569E-2
1.827539593E1,6.283185445E-3,1.895427518E-2,-3.351031989E-2
1.829539436E1,7.696901914E-3,1.761037298E-2,-1.368338149E-2
1.831539593E1,5.585053586E-4,1.211258490E-2,3.263765713E-3
1.833539593E1,-1.692969352E-3,5.619960371E-3,1.211258490E-2
1.835539749E1,3.508111695E-3,1.134464052E-3,5.864306353E-3
1.837539437E1,1.448623277E-2,5.480333697E-3,-1.221730490E-4
1.839539436E1,1.542871073E-2,3.996803891E-3,-1.117010717E-3
1.841539749E1,9.372417815E-3,3.333578818E-3,1.797689125E-3
1.843539436E1,2.897246508E-3,2.111848444E-3,6.475171540E-3
1.845539436E1,4.363323096E-3,3.752457909E-3,1.041961554E-2
1.847539436E1,1.165879890E-2,3.560471581E-3,6.510077976E-3
1.849539593E1,1.359611470E-2,3.420845373E-3,-3.926991019E-3
1.851539593E1,6.649704650E-3,-7.539822254E-3,-1.497492474E-2
1.853539437E1,2.303834539E-3,-1.075122785E-2,-2.563888580E-2
1.855539749E1,7.016223390E-3,1.640609466E-3,-2.898991853E-2
1.857539436E1,1.368338149E-2,1.148426626E-2,-1.891936921E-2
1.859539436E1,1.055924222E-2,7.086036727E-3,6.457718089E-3
1.861539593E1,2.059488557E-3,-3.298672382E-3,3.335324302E-2
1.863539593E1,5.585053586E-4,-1.045452245E-2,4.387757555E-2
1.865539437E1,5.515240598E-3,-1.764527895E-2,3.392919898E-2
1.867539437E1,8.552113548E-3,-9.267698042E-3,4.642575979E-3
1.869539593E1,6.387905218E-3,-1.239183708E-3,-2.312561311E-2
1.871539593E1,6.248278543E-3,-3.630284918E-3,-3.029891662E-2
1.873539436E1,1.884955564E-3,-6.143558770E-3,-1.986184716E-2
1.875539436E1,-5.969026126E-3,-1.588249579E-3,-1.438151300E-2
1.877539593E1,-4.345869645E-3,1.134464052E-3,-1.679006778E-2
1.879539436E1,4.956734832E-3,-1.727875904E-3,-9.494591504E-3
1.881539593E1,8.621926419E-3,-1.291543595E-3,8.342674002E-3
1.883539593E1,1.047197497E-3,6.998770405E-3,2.227040194E-2
1.885539593E1,-6.736970972E-3,5.794493016E-3,2.727949619E-2
1.887539437E1,-2.303834539E-3,-2.792526793E-4,2.391101047E-2
1.889539436E1,6.387905218E-3,-2.600540640E-3,1.034980267E-2
1.891539749E1,1.164134592E-2,-3.769911127E-3,-2.792526735E-3
1.893539436E1,6.352998316E-3,-3.106686054E-3,-1.174606569E-2
1.895539436E1,-1.274090377E-3,1.047197497E-3,-1.106538717E-2
1.897539593E1,-7.888888009E-3,-4.555309191E-3,-3.909537569E-3
1.899539593E1,-9.459684603E-3,-5.131267942E-3,-2.268928074E-4
1.901539593E1,-9.616764262E-3,4.206243437E-3,4.276056774E-3
1.903539437E1,-4.502949305E-3,1.130973361E-2,9.285151958E-3
1.905539593E1,5.061454722E-4,9.005898610E-3,1.061160211E-2
1.907539436E1,8.080874570E-3,8.569566533E-3,4.258603323E-3
1.909539436E1,1.497492474E-2,8.185594343E-3,-4.974188283E-3
1.911539593E1,1.745329238E-2,3.124139272E-3,-1.471312530E-2
1.913539593E1,1.261873078E-2,-6.876597181E-3,-1.980948634E-2
1.915539593E1,8.150687441E-3,-4.031710327E-3,-1.521927118E-2
1.917539437E1,1.040216256E-2,-7.382742595E-3,2.286381321E-3
1.919539593E1,7.993607782E-3,-5.148721393E-3,2.199114859E-2
1.921539593E1,5.585053586E-4,2.303834539E-3,3.358013555E-2
1.923539436E1,-3.438298590E-3,3.647738136E-3,3.541272879E-2
1.925539436E1,-5.270894151E-3,-1.186823938E-3,2.713987045E-2
1.927539593E1,9.948377265E-4,-1.117010717E-3,1.071632188E-2
1.929539436E1,9.704031050E-3,4.118977115E-3,-1.249655709E-2
1.931539593E1,2.277654596E-2,-3.333578818E-3,-2.778564207E-2
1.933539593E1,1.265363675E-2,7.155850180E-4,-2.851868048E-2
1.935539593E1,3.019419499E-3,5.201081280E-3,-2.371902391E-2
1.937539437E1,2.460914198E-3,-1.047197584E-4,-1.455604564E-2
1.939539436E1,3.822271014E-3,-2.443460980E-4,4.014257342E-3
1.941539749E1,5.811946467E-3,7.749261800E-3,2.499311417E-2
1.943539436E1,2.303834539E-3,2.007128671E-3,3.935717419E-2
1.945539436E1,3.316125658E-4,-6.126105785E-3,4.096287861E-2
1.947539436E1,5.044001620E-3,-9.634217247E-3,3.347541392E-2
1.949539593E1,4.415682983E-3,-6.876597181E-3,2.047271281E-2
1.951539593E1,-6.649704650E-3,-2.984513063E-3,1.186823938E-3
1.953539437E1,-1.518436428E-2,-6.614797749E-3,-2.066469751E-2
1.955539593E1,-1.389282104E-2,-1.181587856E-2,-3.317870945E-2
1.957539436E1,-1.101302728E-2,-8.621926419E-3,-3.047344834E-2
1.959539436E1,-8.831365965E-3,-6.387905218E-3,-1.342158206E-2
1.961539436E1,-6.195918657E-3,-7.120943163E-3,5.742133129E-3
1.963539593E1,6.265731994E-3,6.981316983E-5,1.771509275E-2
1.965539437E1,1.589994878E-2,-4.555309191E-3,1.015781611E-2
1.967539437E1,1.171115879E-2,-1.450368576E-2,-1.207767799E-2
1.969539593E1,-1.125737373E-2,-1.200786512E-2,-3.612831607E-2
1.971539593E1,-3.623303398E-2,-1.096066739E-2,-3.083996847E-2
1.973539436E1,-2.860594541E-2,-2.583087189E-3,-6.649704650E-3
1.975539436E1,-5.113814492E-3,7.941247895E-3,2.029817924E-2
1.977539593E1,4.171337001E-3,1.127482671E-2,4.352851212E-2
1.979539436E1,-1.090830751E-2,1.869247667E-2,4.858996719E-2
1.981539593E1,-3.467969224E-2,9.407324716E-3,2.378883772E-2
1.983539593E1,-3.092723340E-2,-6.806784077E-4,-1.244419720E-2
1.985539593E1,-8.988445625E-3,9.058258496E-3,-4.031710699E-2
1.987539437E1,5.672320258E-3,1.305506285E-2,-4.384266958E-2
1.989539436E1,-8.552113432E-4,9.040805511E-3,-3.117158078E-2
1.991539749E1,-1.989675313E-2,1.143190637E-2,-4.590216093E-3
1.993539436E1,-2.546435408E-2,2.267182618E-2,3.012438305E-2
1.995539436E1,-1.026253588E-2,1.342158206E-2,6.197664142E-2
1.997539436E1,5.864306353E-3,2.216568217E-3,7.363544405E-2
1.999539593E1,9.424777701E-3,-1.308996929E-3,6.026621908E-2
2.001539593E1,4.886921961E-4,2.984513063E-3,3.623303398E-2
2.003539437E1,-7.819075137E-3,1.467821933E-2,1.001818944E-2
2.005539593E1,-1.218239777E-2,2.768092230E-2,-8.988445625E-3
2.007539436E1,-9.721484035E-3,3.345796093E-2,-1.734857261E-2
2.009539436E1,-2.530727303E-3,3.202679008E-2,-1.628392190E-2
2.011539593E1,2.792526793E-4,3.249803185E-2,-1.314232964E-2
2.013539593E1,1.012290944E-3,3.225368261E-2,-4.293509759E-3
2.015539593E1,-5.619960371E-3,1.694714651E-2,1.588249579E-3
2.017539437E1,-3.944444004E-3,1.521927118E-2,7.260569837E-3
2.019539593E1,1.082104165E-3,1.181587856E-2,1.748819835E-2
2.021539593E1,1.797689125E-3,7.819075137E-3,2.790781483E-2
2.023539436E1,-5.462880712E-3,5.305801053E-3,2.661627159E-2
2.025539436E1,-1.083849464E-2,1.483529806E-3,1.858775690E-2
2.027539593E1,-5.515240598E-3,-3.054326167E-3,7.033676840E-3
2.029539436E1,-5.585053586E-4,-6.876597181E-3,-6.352998316E-3
2.031539593E1,4.084070213E-3,-8.901178837E-3,-1.960004680E-2
2.033539593E1,3.909537569E-3,-7.574729156E-3,-2.816961333E-2
2.035539593E1,7.679448463E-4,-2.687806962E-3,-2.420771681E-2
2.037539437E1,-3.543018363E-3,-2.426007763E-3,-1.075122785E-2
2.039539436E1,-7.801621687E-3,-3.316125600E-3,4.206243437E-3
2.041539749E1,-2.076941775E-3,-3.665191354E-3,9.546951391E-3
2.043539436E1,3.612831468E-3,-4.433136433E-3,6.492624991E-3
2.045539593E1,6.161012221E-3,-4.363323096E-4,-1.605702913E-3
2.047539436E1,4.886921961E-4,1.431170036E-3,-9.599311277E-3
2.049539593E1,-1.500983140E-3,1.151917269E-3,-1.481784508E-2
2.051539593E1,-9.948377265E-4,2.792526793E-4,-1.298524998E-2
2.053539437E1,1.221730490E-4,7.155850180E-4,-9.093165398E-3
2.055539593E1,1.832595677E-3,-3.839724232E-4,-4.747295752E-3
2.057539436E1,3.071779385E-3,-3.106686054E-3,-7.853981806E-4
2.059539436E1,3.106686054E-3,-2.740166849E-3,2.914699726E-3
2.061539436E1,4.694935866E-3,-4.991641734E-3,6.038838997E-3
2.063539593E1,3.682644805E-3,-4.677482415E-3,4.956734832E-3
2.065539593E1,1.274090377E-3,-4.677482415E-3,2.251474652E-3
2.067539437E1,1.972222002E-3,-4.607669078E-3,-2.216568217E-3
2.069539593E1,3.141592722E-3,-4.276056774E-3,-6.230825558E-3
2.071539593E1,3.089232836E-3,-1.850049011E-3,-7.033676840E-3
2.073539436E1,5.131267942E-3,-3.228859045E-3,-5.026548170E-3
2.075539436E1,3.019419499E-3,-6.667157635E-3,-2.949606394E-3
2.077539593E1,-6.981316837E-4,-4.118977115E-3,-1.570796361E-3
2.079539436E1,-3.036872949E-3,-4.241149873E-3,-4.310963210E-3
2.081539593E1,5.235987919E-5,-4.345869645E-3,-5.934119225E-3
2.083539593E1,1.658062800E-3,-3.036872949E-3,-5.934119225E-3
2.085539593E1,4.398229532E-3,-3.298672382E-3,-4.607669078E-3
2.087539437E1,4.886921961E-4,-3.700098023E-3,-4.136430100E-3
2.089539436E1,-7.504915702E-4,-5.235987715E-3,-1.919862116E-4
2.091539749E1,5.585053586E-4,-8.203047328E-4,2.426007763E-3
2.093539436E1,7.330382941E-4,1.745329209E-4,2.879793290E-3
2.095539436E1,-1.378810150E-3,-9.250245057E-4,1.012290944E-3
2.097539436E1,-2.199114766E-3,-3.926991019E-3,-3.159045940E-3
2.099539593E1,-5.759586347E-4,-9.372417815E-3,-6.265731994E-3
2.101539593E1,1.256637042E-3,-4.241149873E-3,-6.928957067E-3
2.103539437E1,4.014257283E-4,-1.134464052E-3,-7.888888009E-3
2.105539593E1,8.726646192E-4,-2.967059845E-4,-4.415682983E-3
2.107539436E1,2.129301662E-3,-2.303834539E-3,1.623156248E-3
2.109539436E1,1.256637042E-3,-2.530727303E-3,7.086036727E-3
2.111539593E1,1.256637042E-3,-2.111848444E-3,6.387905218E-3
2.113539593E1,-1.850049011E-3,-1.204277156E-3,4.310963210E-3
2.115539437E1,-3.228859045E-3,-1.186823938E-3,3.543018363E-3
2.117539437E1,-1.448623254E-3,2.111848444E-3,1.989675453E-3
2.119539593E1,-1.745329238E-3,3.438298590E-3,-1.396263367E-3
2.121539593E1,-4.293509759E-3,4.084070213E-3,-4.625122529E-3
2.123539436E1,-4.886921961E-3,6.108652451E-4,-4.258603323E-3
2.125539436E1,-2.338741207E-3,2.303834539E-3,-6.335545331E-3
2.127539593E1,-1.553343027E-3,2.426007763E-3,-6.579891313E-3
2.129539436E1,3.490658419E-4,3.438298590E-3,-5.131267942E-3
2.131539593E1,-1.082104165E-3,-1.274090377E-3,-6.108652451E-4
2.133539593E1,-2.426007763E-3,-2.530727303E-3,4.939281847E-3
2.135539593E1,-9.948377265E-4,-1.343903481E-3,7.435102481E-3
2.137539437E1,-3.665191471E-4,-1.012290944E-3,7.836528122E-3
2.139539436E1,-1.151917269E-3,-1.029744279E-3,5.009094719E-3
2.141539749E1,-1.239183708E-3,-9.773843922E-4,1.675516134E-3
2.143539436E1,-2.076941775E-3,-1.762782573E-3,-5.358160939E-3
2.145539436E1,-1.413716702E-3,-1.431170036E-3,-8.866272867E-3
2.147539436E1,1.047197584E-4,-7.330382941E-4,-8.220500313E-3
2.149539593E1,2.565633971E-3,-7.155850180E-4,-2.268928103E-3
2.151539593E1,-5.235987919E-5,-6.806784077E-4,3.001966281E-3
2.153539437E1,-5.235987919E-5,1.308996929E-3,5.829399452E-3
2.155539593E1,4.363323096E-4,4.712388851E-3,5.794493016E-3
2.157539593E1,1.221730490E-4,1.483529806E-3,3.490658419E-4
2.159539436E1,2.740166849E-3,2.897246508E-3,-1.710422686E-3
2.161539593E1,2.094395168E-4,4.502949305E-3,-3.647738136E-3
2.163539593E1,-2.181661548E-3,3.525565146E-3,-5.759586347E-4
2.165539437E1,-1.274090377E-3,-4.363323096E-4,5.410520826E-4
2.167539437E1,5.061454722E-4,-4.625122529E-3,3.490658477E-3
2.169539593E1,8.028514567E-4,-1.448623254E-3,2.652900526E-3
2.171539593E1,-3.316125658E-4,-2.792526793E-4,8.552113432E-4
2.173539436E1,3.263765713E-3,-1.937315450E-3,-1.396263397E-4
2.175539436E1,4.764748737E-3,0.000000000E0,6.283185212E-4
2.177539593E1,6.457717973E-4,-5.759586347E-4,2.268928074E-4
2.179539436E1,-3.246312495E-3,-8.726646192E-4,-5.061454722E-4
2.181539593E1,-2.617993858E-3,-1.396263397E-4,-2.268928074E-4
2.183539593E1,-3.577925032E-3,-9.424777818E-4,7.504915702E-4
2.185539593E1,-5.585053586E-4,-7.504915702E-4,-7.155850180E-4
2.187539437E1,1.396263397E-4,4.712388909E-4,-4.485496320E-3
2.189539436E1,-1.623156248E-3,3.246312495E-3,-7.504915819E-3
2.191539749E1,-8.255407214E-3,-5.759586347E-4,-5.131267942E-3
2.193539436E1,-6.562437862E-3,-1.466076588E-3,-4.136430100E-3
2.195539436E1,-4.014257283E-4,-2.199114766E-3,-2.600540640E-3
2.197539436E1,4.171337001E-3,8.726646047E-5,-2.268928074E-4
2.199539593E1,2.076941775E-3,-9.948377265E-4,2.792526793E-4
2.201539593E1,-1.797689125E-3,-2.042035107E-3,2.705260413E-3
2.203539437E1,-3.054326167E-3,-2.792526735E-3,2.565633971E-3
2.205539593E1,-1.535889693E-3,6.981316837E-4,6.632251316E-4
2.207539436E1,1.326450263E-3,2.164208330E-3,-1.919862116E-4
2.209539436E1,1.902408898E-3,8.726646192E-4,-1.326450263E-3
2.211539593E1,0.000000000E0,-6.806784077E-4,-1.326450263E-3
2.213539593E1,-4.363323096E-4,-5.585053586E-4,2.268928074E-4
2.215539437E1,8.726646047E-5,1.396263397E-4,6.981316983E-5
2.217539437E1,3.490658419E-4,1.047197497E-3,1.343903481E-3
2.219539593E1,1.466076588E-3,4.188790335E-4,-5.235987919E-5
2.221539593E1,8.552113432E-4,8.028514567E-4,8.901178953E-4
2.223539436E1,5.759586347E-4,3.822271014E-3,2.722713631E-3
2.225539436E1,-6.981316837E-4,4.485496320E-3,1.204277156E-3
2.227539593E1,-4.345869645E-3,2.111848444E-3,-1.745329246E-5
2.229539436E1,2.984513063E-3,1.117010717E-3,-1.919862116E-4
2.231539593E1,6.265731994E-3,6.475171540E-3,-7.155850180E-4
2.233539593E1,1.553343027E-3,4.852015525E-3,-6.457717973E-4
2.235539593E1,-6.003932562E-3,2.548180753E-3,-3.089232836E-3
2.237539437E1,-4.590216093E-3,-6.946410518E-3,-3.490658419E-4
2.239539436E1,1.134464052E-3,-4.834562074E-3,4.328416660E-3
2.241539749E1,7.417649496E-3,-1.570796303E-4,6.649704650E-3
2.243539593E1,7.853982039E-3,2.408554312E-3,5.305801053E-3
2.245539436E1,2.984513063E-3,4.014257283E-4,2.617993858E-3
2.247539436E1,-2.094395168E-4,-5.585053586E-4,-8.726646047E-5
2.249539593E1,1.553343027E-3,-3.490658477E-3,-2.513274085E-3
2.251539593E1,4.258603323E-3,-1.692969352E-3,-2.897246508E-3
2.253539437E1,7.504915702E-4,3.246312495E-3,-1.884955564E-3
2.255539593E1,-6.073745899E-3,1.151917269E-3,-1.221730490E-3
2.257539436E1,-7.906341925E-3,1.972222002E-3,-1.535889693E-3
2.259539436E1,1.745329209E-4,1.745329209E-4,3.665191471E-4
2.261539593E1,8.028514683E-3,5.585053586E-4,4.555309191E-3
2.263539593E1,4.153883550E-3,6.806784077E-4,3.281218931E-3
2.265539437E1,1.396263397E-4,4.363323096E-4,9.948377265E-4
2.267539437E1,-5.619960371E-3,1.378810150E-3,-2.617993741E-4
2.269539593E1,-4.642575979E-3,3.316125658E-4,-2.932153177E-3
2.271539593E1,-8.726646047E-5,-3.665191471E-4,-4.380776547E-3
2.273539436E1,4.712388851E-3,-9.948377265E-4,-5.340707488E-3
2.275539436E1,-1.815142459E-3,2.251474652E-3,-7.976154797E-3
2.277539593E1,-7.661995478E-3,-2.530727303E-3,-3.036872949E-3
2.279539593E1,-7.470009383E-3,-7.155850064E-3,5.009094719E-3
2.281539593E1,-2.338741207E-3,-3.106686054E-3,1.398008689E-2
2.283539593E1,4.433136433E-3,7.208209950E-3,1.085594762E-2
2.285539593E1,6.161012221E-3,1.640609466E-3,5.986479111E-3
2.287539437E1,3.071779385E-3,-1.169370604E-3,-3.211405827E-3
2.289539436E1,-6.981316983E-5,-7.278022822E-3,-1.555088349E-2
2.291539749E1,-6.806784077E-4,-1.143190637E-2,-1.970476657E-2
2.293539436E1,-1.256637042E-3,-2.076941775E-3,-1.368338149E-2
2.295539436E1,-4.206243437E-3,4.363323096E-4,-4.363323096E-3
2.297539437E1,-6.161012221E-3,-2.460914198E-3,-8.203047328E-4
2.299539593E1,-9.424777818E-4,-3.420845373E-3,-3.159045940E-3
2.301539593E1,7.906341925E-3,-4.555309191E-3,-3.473205259E-3
2.303539437E1,1.235693134E-2,-1.096066739E-2,-1.483529806E-3
2.305539593E1,8.848818950E-3,-1.261873078E-2,-2.879793290E-3
2.307539436E1,-3.054326167E-3,-6.579891313E-3,-1.001818944E-2
2.309539436E1,-1.308996975E-2,-5.410520826E-3,-1.635373570E-2
2.311539593E1,-8.726646192E-3,-1.317723561E-2,-1.726130582E-2
2.313539593E1,1.064650831E-3,-1.113520097E-2,-9.512044489E-3
2.315539437E1,8.011061698E-3,-1.010545623E-2,-4.485496320E-3
2.317539437E1,5.323254038E-3,-1.015781611E-2,3.316125658E-4
2.319539593E1,2.740166849E-3,-1.047197543E-2,6.003932562E-3
2.321539593E1,-1.500983140E-3,-4.241149873E-3,1.373574138E-2
2.323539436E1,-2.914699726E-3,-2.094394993E-3,1.521927118E-2
2.325539436E1,-1.570796361E-3,-1.117010717E-3,1.207767799E-2
2.327539593E1,4.363323096E-4,-1.012290944E-3,6.405358203E-3
2.329539436E1,1.797689125E-3,-2.809980186E-3,-1.518436475E-3
2.331539593E1,3.857177682E-3,-1.291543595E-3,-1.001818944E-2
2.333539437E1,-1.396263397E-4,-9.948377265E-4,-1.431170013E-2
2.335539593E1,-4.590216093E-3,2.356194425E-3,-1.223475765E-2
2.337539437E1,-1.361356815E-3,3.124139272E-3,-9.477137588E-3
2.339539436E1,-3.490658492E-5,1.919862116E-4,-3.612831468E-3
2.341539749E1,-6.457717973E-4,5.410520826E-4,5.235987919E-5
2.343539436E1,1.221730490E-4,4.153883550E-3,-1.570796303E-4
2.345539436E1,4.171337001E-3,0.000000000E0,3.682644805E-3
2.347539437E1,5.061454605E-3,-8.028514567E-4,6.126105785E-3
2.349539593E1,2.303834539E-3,3.490658492E-5,5.585053470E-3
2.351539593E1,1.396263397E-4,4.188790335E-4,3.281218931E-3
2.353539437E1,-6.283185212E-4,1.413716702E-3,2.792526793E-4
2.355539593E1,1.291543595E-3,-1.745329238E-3,3.490658492E-5
2.357539436E1,3.490658477E-3,-1.396263367E-3,-1.919862116E-4
2.359539436E1,2.181661548E-3,1.745329238E-3,-3.124139272E-3
2.361539593E1,5.934119690E-4,1.832595677E-3,-2.705260413E-3
2.363539593E1,8.901178953E-4,-5.585053586E-4,-3.839724232E-4
2.365539437E1,1.867502346E-3,-1.518436475E-3,3.822271014E-3
2.367539437E1,1.466076588E-3,1.780235791E-3,5.462880712E-3
2.369539593E1,-4.886921961E-4,3.054326167E-3,3.019419499E-3
2.371539593E1,-1.954768784E-3,5.113814492E-3,5.585053586E-4
2.373539436E1,-3.211405827E-3,3.368485486E-3,0.000000000E0
2.375539436E1,-5.585053586E-4,5.061454605E-3,-2.617993741E-4
2.377539593E1,-1.919862116E-4,5.323254038E-3,5.585053586E-4
2.379539436E1,4.014257283E-4,3.490658477E-3,1.134464052E-3
2.381539593E1,2.286381321E-3,3.630284918E-3,2.443460980E-3
2.383539437E1,0.000000000E0,1.658062800E-3,1.239183708E-3
2.385539593E1,-2.059488557E-3,5.585053586E-4,-1.919862116E-4
2.387539437E1,-1.954768784E-3,-1.239183708E-3,1.937315450E-3
2.389539436E1,-1.745329209E-4,-1.343903481E-3,1.413716702E-3
2.391539749E1,2.687806962E-3,-3.316125658E-4,1.239183708E-3
2.393539436E1,1.658062800E-3,-2.094395168E-4,-4.223696887E-3
2.395539436E1,2.478367416E-3,7.679448463E-4,-6.422811653E-3
2.397539437E1,-5.235987483E-4,3.665191471E-4,-2.199114766E-3
2.399539593E1,3.490658492E-5,1.186823938E-3,4.153883550E-3
2.401539593E1,9.773843922E-4,1.727875904E-3,9.808750823E-3
2.403539437E1,-3.316125600E-3,-5.934119690E-4,1.054178830E-2
2.405539593E1,-6.789330859E-3,-1.396263367E-3,4.258603323E-3
2.407539436E1,-3.159045940E-3,-1.099557383E-3,-4.188789986E-3
2.409539436E1,-3.665191471E-4,-1.431170036E-3,-1.052433532E-2
2.411539593E1,-1.256637042E-3,-3.141592606E-4,-1.136209350E-2
2.413539593E1,-2.495820867E-3,-9.948377265E-4,-9.407324716E-3
2.415539437E1,-6.789330859E-3,-4.747295752E-3,-5.445427261E-3
2.417539437E1,-5.427973811E-3,-2.914699726E-3,-3.839724232E-4
2.419539593E1,-2.443460980E-3,1.570796303E-4,5.497787148E-3
2.421539749E1,1.745329246E-5,4.886921961E-4,5.951572675E-3
2.423539436E1,-6.806784077E-4,-1.396263367E-3,2.687806962E-3
2.425539436E1,-4.834562074E-3,-1.099557383E-3,1.745329209E-4
2.427539593E1,-1.535889693E-3,-2.600540640E-3,-2.548180753E-3
2.429539436E1,1.378810150E-3,-2.321287990E-3,-2.914699726E-3
2.431539593E1,2.216568217E-3,-2.042035107E-3,-2.583087189E-3
2.433539437E1,-4.886921961E-4,-1.151917269E-3,-1.954768784E-3
2.435539593E1,-4.520402756E-3,-4.712388909E-4,-2.146754880E-3
2.437539437E1,-5.637413356E-3,-2.565633971E-3,-1.884955564E-3
2.439539436E1,7.679448463E-4,-1.710422686E-3,-2.792526793E-4
2.441539749E1,1.343903481E-3,-1.151917269E-3,9.948377265E-4
2.443539436E1,-1.221730490E-4,-1.012290944E-3,-2.268928074E-4
2.445539593E1,-4.886921961E-4,-1.762782573E-3,-2.321287990E-3
2.447539437E1,-2.617993741E-4,-2.635447076E-3,-1.343903481E-3
2.449539593E1,-2.268928074E-4,-1.064650831E-3,-3.490658419E-4
2.451539593E1,-3.490658492E-5,-3.490658419E-4,-5.235987919E-5
2.453539437E1,-1.169370604E-3,-2.775073517E-3,4.712388909E-4
2.455539593E1,6.457717973E-4,-2.600540640E-3,1.797689125E-3
2.457539436E1,6.108652451E-4,-8.726646047E-5,-1.570796303E-4
2.459539436E1,-2.076941775E-3,-1.047197497E-3,-2.251474652E-3
2.461539593E1,-3.577925032E-3,-6.946410518E-3,-5.323254038E-3
2.463539593E1,-2.094394993E-3,-9.075712413E-3,-2.792526735E-3
2.465539593E1,-1.902408898E-3,-5.794493016E-3,-2.914699726E-3
2.467539437E1,-2.024581889E-3,-4.694935866E-3,-1.884955564E-3
2.469539593E1,2.792526793E-4,-7.679448463E-4,8.726646047E-5
2.471539749E1,4.276056774E-3,-1.291543595E-3,5.515240598E-3
2.473539436E1,4.921828397E-3,-2.740166849E-3,5.637413356E-3
2.475539436E1,4.014257342E-3,-3.490658477E-3,2.757620299E-3
2.477539593E1,-1.658062800E-3,-1.535889693E-3,-4.886921961E-4
2.479539436E1,-9.616764262E-3,8.552113432E-4,-5.602506921E-3
2.481539593E1,-8.726646192E-3,1.239183708E-3,-9.616764262E-3
2.483539437E1,-4.223696887E-3,-2.199114766E-3,-8.761553094E-3
2.485539593E1,5.585053586E-4,-1.029744279E-3,-5.044001620E-3
2.487539437E1,3.089232836E-3,-3.141592606E-4,-1.012290944E-3
2.489539436E1,-3.141592606E-4,-1.884955564E-3,1.186823938E-3
2.491539749E1,-3.892084118E-3,-2.478367416E-3,3.001966281E-3
2.493539436E1,-5.811946467E-3,-1.082104165E-3,1.500983140E-3
2.495539436E1,-2.129301662E-3,-1.605702913E-3,5.759586347E-4
2.497539437E1,8.552113432E-4,-2.408554312E-3,-1.570796303E-4
2.499539593E1,-3.141592606E-4,-4.188789986E-3,-3.490658477E-3
2.501539593E1,-8.028514567E-4,-1.623156248E-3,-5.445427261E-3
2.503539437E1,-2.321287990E-3,-2.094395168E-4,-3.665191354E-3
2.505539593E1,-2.373647876E-3,-9.773843922E-4,-2.111848444E-3
2.507539436E1,-2.513274085E-3,-9.773843922E-4,-3.839724232E-4
2.509539436E1,-2.513274085E-3,-8.901178953E-4,-2.617993741E-4
2.511539593E1,-2.530727303E-3,-5.934119690E-4,-2.617993741E-4
2.513539593E1,-7.679448463E-4,-3.839724232E-4,-1.466076588E-3
2.515539437E1,-5.235987483E-4,-6.806784077E-4,-1.780235791E-3
2.517539437E1,-1.361356815E-3,-1.012290944E-3,-2.373647876E-3
2.519539593E1,-9.599310579E-4,-1.239183708E-3,-1.186823938E-3
2.521539749E1,-3.141592606E-4,-2.094395168E-4,-3.839724232E-4
2.523539436E1,-1.151917269E-3,1.902408898E-3,-3.839724232E-4
2.525539436E1,-3.525565146E-3,-3.141592606E-4,2.268928074E-4
2.527539593E1,-4.886921961E-4,-1.012290944E-3,1.239183708E-3
2.529539436E1,2.862340072E-3,4.886921961E-4,1.623156248E-3
2.531539593E1,1.570796303E-4,1.727875904E-3,2.059488557E-3
2.533539437E1,-5.148721393E-3,-4.537856148E-4,6.108652451E-4
2.535539593E1,-4.310963210E-3,-7.243116386E-3,9.250245057E-4
2.537539437E1,-4.886921961E-4,-3.892084118E-3,4.188790335E-4
2.539539436E1,-6.981316983E-5,6.981316837E-4,1.413716702E-3
2.541539749E1,8.901178953E-4,3.490658492E-5,3.490658492E-5
2.543539436E1,3.839724232E-4,-1.012290944E-3,3.839724232E-4
2.545539436E1,1.919862116E-4,-4.537856148E-4,5.934119690E-4
2.547539437E1,1.919862116E-4,1.151917269E-3,-5.061454722E-4
2.549539593E1,-8.028514567E-4,3.193952609E-3,-1.919862116E-3
2.551539593E1,-1.588249579E-3,2.617993858E-3,-1.570796361E-3
2.553539437E1,-4.031710327E-3,1.535889693E-3,-2.076941775E-3
2.555539593E1,-5.009094719E-3,2.268928103E-3,-3.159045940E-3
2.557539436E1,-2.652900526E-3,2.530727303E-3,-2.059488557E-3
2.559539436E1,-9.075712296E-4,0.000000000E0,-6.981316837E-4
2.561539593E1,4.363323096E-4,-6.806784077E-4,2.356194425E-3
2.563539593E1,1.082104165E-3,2.617993741E-4,2.478367416E-3
2.565539437E1,-3.665191471E-4,2.914699726E-3,2.670353744E-3
2.567539437E1,-6.283185212E-4,2.460914198E-3,2.967059612E-3
2.569539593E1,1.221730490E-4,4.886921961E-4,4.817108624E-3
2.571539749E1,1.518436475E-3,-9.075712296E-4,3.630284918E-3
2.573539436E1,8.377580671E-4,8.726646192E-4,8.028514567E-4
2.575539436E1,5.061454722E-4,1.588249579E-3,-1.047197584E-4
2.577539593E1,-5.235987919E-5,2.932153177E-3,-2.757620299E-3
2.579539436E1,-7.679448463E-4,2.687806962E-3,-1.570796361E-3
2.581539593E1,-9.599310579E-4,1.361356815E-3,-2.216568217E-3
2.583539437E1,-2.967059845E-4,1.378810150E-3,-8.726646192E-4
2.585539593E1,1.256637042E-3,2.495820867E-3,-1.989675453E-3
2.587539437E1,5.410520826E-4,6.981316837E-4,3.490658492E-5
2.589539436E1,0.000000000E0,1.186823938E-3,2.129301662E-3
2.591539749E1,-4.712388909E-4,2.984513063E-3,5.480333697E-3
2.593539436E1,-8.552113432E-4,2.530727303E-3,6.073745899E-3
2.595539436E1,-2.443460980E-4,9.250245057E-4,2.984513063E-3
2.597539437E1,5.235987919E-5,-1.745329246E-5,-1.919862116E-4
2.599539593E1,-2.094395168E-4,6.108652451E-4,-3.246312495E-3
2.601539593E1,3.490658492E-5,-7.330382941E-4,-2.687806962E-3
2.603539437E1,1.745329209E-4,9.075712296E-4,-1.797689125E-3
2.605539593E1,1.221730490E-4,1.745329246E-5,4.188790335E-4
2.607539436E1,6.283185212E-4,1.884955564E-3,4.310963210E-3
2.609539436E1,-7.504915702E-4,3.752457909E-3,5.480333697E-3
2.611539593E1,-4.276056774E-3,1.850049011E-3,3.159045940E-3
2.613539593E1,-5.410520826E-3,-1.972222002E-3,-1.396263397E-4
2.615539437E1,-1.186823938E-3,-5.096361507E-3,-2.775073517E-3
2.617539437E1,-2.111848444E-3,-3.822271014E-3,-5.026548170E-3
2.619539593E1,-1.832595677E-3,-1.745329238E-3,-6.702064537E-3
2.621539749E1,-5.235987919E-5,-2.984513063E-3,-5.253441166E-3
2.623539436E1,1.117010717E-3,-2.356194425E-3,2.094395168E-4
2.625539436E1,1.012290944E-3,-1.012290944E-3,4.852015525E-3
2.627539593E1,1.919862116E-4,-6.981316837E-4,3.665191354E-3
2.629539436E1,-2.670353744E-3,1.134464052E-3,5.166174378E-3
2.631539593E1,-6.003932562E-3,1.239183708E-3,2.687806962E-3
2.633539437E1,-4.782202188E-3,2.443460980E-4,-1.692969352E-3
2.635539593E1,-2.460914198E-3,2.356194425E-3,-7.155850064E-3
2.637539437E1,8.726646047E-5,1.727875904E-3,-1.010545623E-2
2.639539436E1,-3.665191471E-4,1.361356815E-3,-6.649704650E-3
2.641539749E1,-6.632251316E-4,-4.712388909E-4,-6.457717973E-4
2.643539436E1,-1.378810150E-3,-1.099557383E-3,3.298672382E-3
2.645539436E1,-1.745329238E-3,1.343903481E-3,2.460914198E-3
2.647539437E1,-1.954768784E-3,2.617993741E-4,3.071779385E-3
2.649539593E1,-1.012290944E-3,-4.886921961E-4,2.426007763E-3
2.651539593E1,-1.884955564E-3,-1.780235791E-3,1.396263397E-4
2.653539437E1,-9.075712296E-4,-2.548180753E-3,-2.181661548E-3
2.655539593E1,-7.330382941E-4,-1.064650831E-3,-3.089232836E-3
2.657539436E1,6.981316983E-5,-1.012290944E-3,-2.984513063E-3
2.659539436E1,-1.413716702E-3,-1.972222002E-3,-1.326450263E-3
2.661539593E1,-2.617993858E-3,-1.815142459E-3,-5.235987483E-4
2.663539593E1,-1.553343027E-3,-1.012290944E-3,-1.745329246E-5
2.665539437E1,-3.316125658E-4,3.490658492E-5,8.726646192E-4
2.667539437E1,-2.443460980E-4,-6.981316837E-4,-2.321287990E-3
2.669539593E1,-2.251474652E-3,1.448623254E-3,-1.972222002E-3
2.671539749E1,-1.029744279E-3,-4.188790335E-4,-1.012290944E-3
2.673539436E1,-7.504915702E-4,-5.585053586E-4,-4.712388909E-4
2.675539436E1,4.188790335E-4,-1.186823938E-3,-1.570796303E-4
2.677539593E1,1.221730490E-4,-6.981316837E-4,2.967059845E-4
2.679539436E1,-1.553343027E-3,1.535889693E-3,-1.570796303E-4
2.681539593E1,-4.712388909E-4,3.333578818E-3,-1.919862116E-4
2.683539437E1,-8.726646047E-5,-1.396263397E-4,3.106686054E-3
2.685539593E1,4.904375412E-3,1.396263367E-3,2.932153177E-3
2.687539437E1,1.466076588E-3,1.919862116E-3,3.490658492E-5
2.689539436E1,-5.358160939E-3,1.675516134E-3,-6.457717973E-4
2.691539749E1,-7.644542027E-3,-3.717551241E-3,-3.159045940E-3
2.693539436E1,-2.792526735E-3,-4.398229532E-3,-1.117010717E-3
2.695539436E1,1.884955564E-3,-3.193952609E-3,-1.308996929E-3
2.697539437E1,3.490658477E-3,-1.169370604E-3,-6.806784077E-4
2.699539593E1,3.351032268E-3,-1.762782573E-3,3.490658419E-4
2.701539593E1,1.413716702E-3,-9.773843922E-4,3.455751808E-3
2.703539437E1,-1.745329209E-4,-5.235987483E-4,3.298672382E-3
2.705539593E1,-2.617993741E-4,6.806784077E-4,2.356194425E-3
2.707539436E1,4.014257283E-4,3.001966281E-3,2.234021435E-3
2.709539436E1,-1.064650831E-3,3.769911127E-3,1.466076588E-3
2.711539593E1,-3.089232836E-3,2.548180753E-3,-3.735004691E-3
2.713539593E1,-3.735004691E-3,3.839724232E-3,-6.702064537E-3
2.715539437E1,-1.623156248E-3,4.590216093E-3,-6.492624991E-3
2.717539437E1,-9.599310579E-4,1.413716702E-3,-4.118977115E-3
2.719539593E1,1.605702913E-3,-9.773843922E-4,-6.108652451E-4
2.721539749E1,-2.443460980E-4,-9.948377265E-4,4.241149873E-3
2.723539436E1,-1.431170036E-3,5.759586347E-4,6.946410518E-3
2.725539436E1,3.490658492E-5,-5.585053586E-4,1.090830751E-2
2.727539593E1,1.745329209E-4,-1.082104165E-3,8.377579972E-3
2.729539436E1,-4.886921961E-4,-1.012290944E-3,2.199114766E-3
2.731539593E1,-1.623156248E-3,-1.029744279E-3,-4.625122529E-3
2.733539437E1,-6.283185212E-4,1.029744279E-3,-6.946410518E-3
2.735539593E1,-6.108652451E-4,1.256637042E-3,-9.302604944E-3
2.737539437E1,-1.274090377E-3,-5.759586347E-4,-7.592182141E-3
2.739539436E1,-1.518436475E-3,6.806784077E-4,-2.478367416E-3
2.741539749E1,-1.099557383E-3,-1.570796303E-4,8.726646047E-5
2.743539436E1,-2.617993741E-4,2.268928074E-4,3.001966281E-3
2.745539436E1,1.047197584E-4,1.047197584E-4,3.665191354E-3
2.747539437E1,-7.330382941E-4,1.884955564E-3,3.019419499E-3
2.749539593E1,-3.141592606E-4,7.853981806E-4,8.726646047E-5
2.751539593E1,-1.815142459E-3,-1.745329209E-4,-1.029744279E-3
2.753539437E1,8.726646047E-5,-3.490658492E-5,-4.886921961E-4
2.755539593E1,1.553343027E-3,0.000000000E0,-6.981316983E-5
2.757539436E1,-1.047197584E-4,9.773843922E-4,1.239183708E-3
2.759539436E1,5.235987919E-5,8.726646047E-5,1.466076588E-3
2.761539593E1,6.108652451E-4,2.268928074E-4,4.607669078E-3
2.763539593E1,2.530727303E-3,3.630284918E-3,2.478367416E-3
2.765539437E1,-2.478367416E-3,2.286381321E-3,2.914699726E-3
2.767539437E1,-4.904375412E-3,-1.186823938E-3,-8.726646192E-4
2.769539593E1,-1.902408898E-3,-6.108652335E-3,-9.250245057E-4
2.771539749E1,9.948377265E-4,-4.153883550E-3,-2.426007763E-3
2.773539436E1,1.570796303E-4,-6.981316837E-4,-1.832595677E-3
2.775539436E1,8.028514567E-4,2.967059845E-4,-3.089232836E-3
2.777539593E1,1.221730490E-4,-2.705260413E-3,-1.972222002E-3
2.779539437E1,-2.094395168E-4,-1.448623254E-3,1.570796303E-4
2.781539593E1,1.221730490E-4,-2.443460980E-3,2.042035107E-3
2.783539437E1,4.712388909E-4,3.665191471E-4,1.797689125E-3
2.785539593E1,-1.483529806E-3,9.948377265E-4,5.340707488E-3
2.787539593E1,-4.921828397E-3,-7.853981806E-4,1.762782573E-3
2.789539436E1,-3.368485486E-3,8.726646047E-5,-3.508111695E-3
2.791539749E1,-2.792526735E-3,-2.967059845E-4,-5.864306353E-3
2.793539436E1,-9.773843922E-4,1.186823938E-3,-7.033676840E-3
2.795539436E1,-3.490658492E-5,6.981316837E-4,-4.206243437E-3
2.797539437E1,-1.396263367E-3,-1.780235791E-3,-1.902408898E-3
2.799539593E1,-1.867502346E-3,3.839724232E-4,2.164208330E-3
2.801539593E1,-1.815142459E-3,3.665191471E-4,6.178465672E-3
2.803539437E1,7.155850180E-4,-6.806784077E-4,7.435102481E-3
2.805539593E1,-1.570796303E-4,-1.919862116E-3,4.537856206E-3
2.807539436E1,-1.326450263E-3,-8.203047328E-4,-2.775073517E-3
2.809539436E1,-1.221730490E-4,-8.203047328E-4,-7.382742595E-3
2.811539593E1,-3.665191471E-4,-5.934119690E-4,-6.597344764E-3
2.813539593E1,-3.490658492E-5,-1.396263397E-4,-2.757620299E-3
2.815539437E1,-1.396263367E-3,-7.679448463E-4,-2.617993741E-4
2.817539437E1,-1.884955564E-3,-1.308996929E-3,1.553343027E-3
2.819539593E1,-6.806784077E-4,-9.948377265E-4,1.919862116E-3
2.821539749E1,9.773843922E-4,4.188790335E-4,2.635447076E-3
2.823539436E1,5.759586347E-4,5.585053586E-4,2.391101094E-3
2.825539436E1,1.745329246E-5,-6.981316837E-4,1.012290944E-3
2.827539593E1,-6.108652451E-4,2.443460980E-4,-9.424777818E-4
2.829539437E1,-1.396263367E-3,-1.448623254E-3,-1.029744279E-3
2.831539593E1,3.490658492E-5,5.934119690E-4,-2.583087189E-3
2.833539437E1,5.061454722E-4,1.431170036E-3,-1.343903481E-3
2.835539593E1,-9.075712296E-4,4.537856148E-4,1.605702913E-3
2.837539437E1,4.363323096E-4,2.268928103E-3,4.031710327E-3
2.839539436E1,6.806784077E-4,2.303834539E-3,4.590216093E-3
2.841539749E1,-3.752457909E-3,-3.141592606E-4,5.934119690E-4
2.843539436E1,-3.769911127E-3,-3.246312495E-3,1.047197584E-4
2.845539436E1,-5.235987483E-4,-4.625122529E-3,-5.061454722E-4
2.847539437E1,1.012290944E-3,-1.535889693E-3,-1.012290944E-3
2.849539593E1,7.504915702E-4,1.745329209E-4,-7.330382941E-4
2.851539593E1,1.745329209E-4,-3.316125658E-4,-1.343903481E-3
2.853539437E1,1.623156248E-3,1.047197584E-4,2.967059845E-4
2.855539593E1,9.424777818E-4,-1.919862116E-4,1.466076588E-3
2.857539436E1,1.012290944E-3,1.151917269E-3,1.308996929E-3
2.859539436E1,-6.283185212E-4,3.333578818E-3,1.570796361E-3
2.861539436E1,-3.124139272E-3,1.082104165E-3,2.426007763E-3
2.863539593E1,-2.042035107E-3,1.745329246E-5,5.235987919E-5
2.865539437E1,3.490658492E-5,5.934119690E-4,-1.308996929E-3
2.867539437E1,-1.378810150E-3,7.853981806E-4,-4.782202188E-3
2.869539593E1,-8.028514567E-4,2.687806962E-3,-4.869468510E-3
2.871539749E1,-2.007128671E-3,1.221730490E-4,-1.832595677E-3
2.873539436E1,-1.186823938E-3,1.553343027E-3,1.291543595E-3
2.875539436E1,7.155850180E-4,3.281218931E-3,4.310963210E-3
2.877539593E1,6.981316837E-4,5.410520826E-4,5.044001620E-3
2.879539437E1,8.726646047E-5,5.410520826E-4,4.433136433E-3
2.881539593E1,-6.806784077E-4,-6.632251316E-4,1.675516134E-3
2.883539437E1,-1.169370604E-3,-4.886921961E-4,-1.448623254E-3
2.885539593E1,-3.141592606E-4,-4.014257283E-4,-3.996803891E-3
2.887539437E1,-5.235987919E-5,-1.396263397E-4,-3.735004691E-3
2.889539436E1,1.396263397E-4,-5.410520826E-4,-3.944444004E-3
2.891539749E1,1.047197584E-4,-5.585053586E-4,-1.256637042E-3
2.893539436E1,-1.396263397E-4,-6.981316837E-4,-8.726646047E-5
2.895539436E1,5.410520826E-4,-5.585053586E-4,-1.919862116E-4
2.897539437E1,-1.256637042E-3,-2.007128671E-3,0.000000000E0
2.899539593E1,-7.853981806E-4,-1.553343027E-3,1.623156248E-3
2.901539593E1,5.235987919E-5,-1.012290944E-3,1.745329246E-5
2.903539437E1,1.396263397E-4,4.363323096E-4,2.268928074E-4
2.905539593E1,2.617993741E-4,-1.466076588E-3,2.268928074E-4
2.907539436E1,1.343903481E-3,-1.064650831E-3,2.792526793E-4
2.909539436E1,1.343903481E-3,1.937315450E-3,-1.762782573E-3
2.911539593E1,-1.570796361E-3,3.316125658E-4,-4.398229532E-3
2.913539593E1,8.726646192E-4,-1.361356815E-3,-1.675516134E-3
2.915539437E1,1.239183708E-3,1.780235791E-3,-9.424777818E-4
2.917539437E1,-3.246312495E-3,2.373647876E-3,-1.378810150E-3
2.919539437E1,-3.996803891E-3,-2.565633971E-3,-3.996803891E-3
2.921539749E1,-4.886921961E-4,-8.133234456E-3,-3.176499158E-3
2.923539436E1,7.504915702E-4,-6.021386012E-3,-3.385938704E-3
2.925539436E1,4.712388909E-4,-4.956734832E-3,-2.007128671E-3
2.927539593E1,7.679448463E-4,-3.630284918E-3,-8.726646192E-4
2.929539437E1,2.181661548E-3,-4.014257342E-3,1.797689125E-3
2.931539593E1,2.513274085E-3,-4.188789986E-3,5.602506921E-3
2.933539437E1,2.513274085E-3,-2.827433404E-3,4.433136433E-3
2.935539593E1,1.343903481E-3,-7.679448463E-4,-2.268928074E-4
2.937539437E1,-1.431170036E-3,1.326450263E-3,-3.490658477E-3
2.939539436E1,-3.124139272E-3,-6.108652451E-4,-5.742133129E-3
2.941539749E1,-1.658062800E-3,-3.490658492E-5,-6.894050632E-3
2.943539436E1,-1.256637042E-3,1.186823938E-3,-3.857177682E-3
2.945539436E1,-8.028514567E-4,2.914699726E-3,-3.019419499E-3
2.947539437E1,-1.745329246E-5,-1.867502346E-3,-2.216568217E-3
2.949539593E1,-5.235987919E-5,-2.722713631E-3,-3.665191471E-4
2.951539593E1,6.981316983E-5,-1.640609466E-3,-2.094395168E-4
2.953539437E1,-3.141592606E-4,-1.256637042E-3,5.934119690E-4
2.955539593E1,1.012290944E-3,-3.403391922E-3,9.075712296E-4
2.957539436E1,1.919862116E-4,-4.310963210E-3,-1.396263397E-4
2.959539436E1,5.410520826E-4,-5.148721393E-3,-3.577925032E-3
2.961539593E1,1.047197584E-4,-4.921828397E-3,-7.312929723E-3
2.963539593E1,5.585053586E-4,-4.380776547E-3,-7.173303049E-3
2.965539437E1,1.954768784E-3,-4.520402756E-3,-5.148721393E-3
2.967539437E1,3.700098023E-3,-5.881759338E-3,-1.466076588E-3
2.969539437E1,8.028514567E-4,-3.909537569E-3,-1.692969352E-3
2.971539749E1,-3.316125658E-4,-1.989675453E-3,-3.124139272E-3
2.973539436E1,-2.443460980E-4,-1.431170036E-3,-3.473205259E-3
2.975539436E1,1.989675453E-3,-3.054326167E-3,-3.804817796E-3
2.977539593E1,3.525565146E-3,-3.473205259E-3,-3.577925032E-3
2.979539437E1,3.473205259E-3,-4.625122529E-3,-1.099557383E-3
2.981539593E1,2.076941775E-3,-9.250245057E-4,-2.111848444E-3
2.983539437E1,-3.490658492E-5,-1.326450263E-3,-3.752457909E-3
2.985539593E1,1.884955564E-3,-5.550147034E-3,-3.246312495E-3
2.987539593E1,8.534659632E-3,-4.171337001E-3,-3.385938704E-3
2.989539593E1,8.569566533E-3,-5.393067375E-3,-3.420845373E-3
2.991539749E1,1.396263367E-3,-5.375613924E-3,-3.543018363E-3
2.993539436E1,-5.235987483E-4,-7.382742595E-3,-5.340707488E-3
2.995539437E1,3.490658492E-5,-1.108284108E-2,-1.518436475E-3
2.997539437E1,6.475171540E-3,-1.130973361E-2,2.617993741E-4
2.999539593E1,6.352998316E-3,-1.115265395E-2,-6.283185212E-4
3.001539593E1,5.288347602E-3,-9.267698042E-3,-9.599310579E-4
3.003539437E1,2.094394993E-3,-8.482299745E-3,-3.438298590E-3
3.005539593E1,6.457717973E-4,-7.923794910E-3,-4.939281847E-3
3.007539593E1,1.815142459E-3,-7.819075137E-3,-5.742133129E-3
3.009539436E1,2.408554312E-3,-5.358160939E-3,-5.235987715E-3
3.011539593E1,1.570796361E-3,-4.276056774E-3,-2.949606394E-3
3.013539593E1,-6.806784077E-4,-3.996803891E-3,-2.268928074E-4
3.015539437E1,-1.448623254E-3,-3.577925032E-3,1.047197584E-4
3.017539437E1,1.919862116E-4,-4.241149873E-3,-1.518436475E-3
3.019539437E1,6.981316837E-4,-5.113814492E-3,-5.323254038E-3
3.021539749E1,2.460914198E-3,-5.183627829E-3,-6.405358203E-3
3.023539436E1,1.762782573E-3,-5.375613924E-3,-5.567600485E-3
3.025539436E1,1.919862116E-4,-1.605702913E-3,-1.937315450E-3
3.027539593E1,0.000000000E0,-2.391101094E-3,1.204277156E-3
3.029539437E1,8.726646047E-5,-7.871435024E-3,1.692969352E-3
3.031539593E1,2.792526793E-4,-7.749261800E-3,-1.815142459E-3
3.033539437E1,-2.967059845E-4,-5.462880712E-3,-4.869468510E-3
3.035539593E1,1.169370604E-3,-4.886921961E-3,-5.253441166E-3
3.037539437E1,4.886921961E-4,-2.495820867E-3,-4.258603323E-3
3.039539436E1,1.221730490E-4,-3.595378250E-3,-1.710422686E-3
3.041539749E1,8.726646047E-5,-4.991641734E-3,-1.343903481E-3
3.043539436E1,1.448623254E-3,-5.375613924E-3,-1.710422686E-3
3.045539593E1,5.585053586E-4,-3.700098023E-3,-1.745329246E-5
3.047539437E1,-3.316125658E-4,-2.548180753E-3,-1.919862116E-4
3.049539593E1,2.303834539E-3,-9.250245057E-4,-3.228859045E-3
3.051539593E1,-1.745329209E-4,-4.485496320E-3,-2.268928074E-4
3.053539437E1,-2.775073517E-3,-2.199114766E-3,2.076941775E-3
3.055539593E1,2.617993741E-4,-6.091198884E-3,1.867502346E-3
3.057539593E1,3.455751808E-3,2.967059845E-4,-2.967059845E-4
3.059539436E1,2.268928103E-3,1.762782573E-3,5.235987919E-5
3.061539593E1,-2.059488557E-3,1.745329246E-5,4.363323096E-4
3.063539593E1,-5.497787148E-3,-9.512044489E-3,-4.729842301E-3
3.065539593E1,-5.532693584E-3,-9.442231618E-3,-8.028514683E-3
3.067539437E1,-4.712388909E-4,-2.234021435E-3,-4.520402756E-3
3.069539437E1,4.991641734E-3,-4.555309191E-3,-6.108652451E-4
3.071539749E1,1.989675453E-3,-6.038838997E-3,1.570796303E-4
3.073539436E1,-2.094395168E-4,-6.527531426E-3,2.617993741E-4
3.075539436E1,1.221730490E-4,-3.351032268E-3,1.919862116E-4
3.077539593E1,1.570796303E-4,-1.343903481E-3,0.000000000E0
3.079539437E1,1.064650831E-3,-1.815142459E-3,1.553343027E-3
3.081539593E1,1.221730490E-4,-2.181661548E-3,-4.537856148E-4
3.083539437E1,-4.101523664E-3,-9.250245057E-4,3.665191471E-4
3.085539593E1,-7.766715251E-3,5.410520826E-4,2.670353744E-3
3.087539437E1,-4.136430100E-3,5.585053470E-3,4.188790335E-4
3.089539436E1,5.201081280E-3,6.108652451E-4,-2.844886621E-3
3.091539749E1,6.352998316E-3,-6.457717973E-4,-3.385938704E-3
3.093539436E1,1.797689125E-3,-7.504915702E-4,-2.251474652E-3
3.095539437E1,-3.647738136E-3,-2.792526735E-3,-2.949606394E-3
3.097539437E1,-5.340707488E-3,-2.059488557E-3,-8.726646047E-5
3.099539593E1,-5.672320258E-3,1.623156248E-3,1.391027402E-2
3.101539593E1,-4.537856206E-3,1.797689125E-3,2.693043090E-2
3.103539593E1,-1.553343027E-3,7.557275705E-3,2.782054804E-2
3.105539593E1,-1.221730490E-4,9.843656793E-3,2.415535599E-2
3.107539593E1,-2.670353744E-3,1.050688233E-2,1.213003788E-2
3.109539436E1,-8.953538723E-3,4.118977115E-3,-8.098327555E-3
3.111539593E1,-1.359611470E-2,8.377580671E-4,-2.890265174E-2
3.113539593E1,-8.726646192E-3,9.512044489E-3,-3.377212211E-2
3.115539437E1,2.565633971E-3,1.221730467E-2,-1.473057922E-2
3.117539437E1,6.091198884E-3,6.265731994E-3,1.204277202E-2
3.119539437E1,-2.321287990E-3,0.000000000E0,3.539527580E-2
3.121539749E1,-1.171115879E-2,5.550147034E-3,3.988077492E-2
3.123539436E1,-1.150172018E-2,1.235693134E-2,3.312635049E-2
3.125539436E1,-2.967059845E-4,1.616174914E-2,1.705186628E-2
3.127539593E1,7.609635592E-3,5.427973811E-3,-6.283185445E-3
3.129539437E1,4.921828397E-3,6.108652451E-4,-2.556907386E-2
3.131539593E1,-2.094394993E-3,2.548180753E-3,-3.028146178E-2
3.133539437E1,-2.984513063E-3,6.318091881E-3,-1.734857261E-2
3.135539593E1,9.599310579E-4,4.223696887E-3,8.726646192E-3
3.137539593E1,5.009094719E-3,2.809980186E-3,3.096214123E-2
3.139539436E1,3.735004691E-3,2.024581889E-3,3.654719517E-2
3.141539749E1,-3.473205259E-3,3.316125658E-4,2.691297606E-2
3.143539436E1,-5.724680144E-3,4.537856206E-3,7.051130291E-3
3.145539437E1,1.658062800E-3,8.831365965E-3,-4.049163777E-3
3.147539437E1,9.529497474E-3,6.998770405E-3,-7.801621687E-3
3.149539593E1,8.499753661E-3,5.585053470E-3,-7.888888009E-3
3.151539593E1,-1.640609466E-3,2.914699726E-3,-6.021386012E-3
3.153539437E1,-8.045967668E-3,2.914699726E-3,-3.473205259E-3
3.155539749E1,-6.614797749E-3,7.086036727E-3,-5.585053586E-4
3.157539593E1,-1.151917269E-3,6.736970972E-3,-1.064650831E-3
3.159539436E1,5.707226694E-3,4.433136433E-3,-7.504915702E-4
3.161539436E1,6.265731994E-3,1.396263397E-4,-1.134464052E-3
3.163539593E1,4.363323096E-4,1.361356815E-3,1.047197584E-4
3.165539437E1,-6.161012221E-3,5.288347602E-3,4.502949305E-3
3.167539437E1,-5.916666240E-3,8.534659632E-3,6.003932562E-3
3.169539437E1,-3.787364578E-3,8.063420653E-3,3.455751808E-3
3.171539749E1,-2.426007763E-3,4.049163777E-3,-2.321287990E-3
3.173539593E1,-2.949606394E-3,-9.599310579E-4,-9.686577134E-3
3.175539436E1,-4.380776547E-3,8.901178953E-4,-1.014036313E-2
3.177539593E1,-3.944444004E-3,6.265731994E-3,-5.585053470E-3
3.179539437E1,-4.066617228E-3,1.082104165E-3,-2.076941775E-3
3.181539593E1,-5.148721393E-3,2.635447076E-3,6.928957067E-3
3.183539437E1,-1.710422686E-3,8.726646047E-5,1.670280099E-2
3.185539593E1,2.199114766E-3,-1.850049011E-3,1.544616371E-2
3.187539593E1,-2.443460980E-4,-9.948377265E-4,5.305801053E-3
3.189539436E1,1.308996929E-3,-9.948377265E-4,-6.963863503E-3
3.191539749E1,1.239183708E-3,-1.239183708E-3,-1.349139493E-2
3.193539436E1,-1.884955564E-3,-1.047197497E-3,-1.211258490E-2
3.195539437E1,-5.183627829E-3,-8.203047328E-4,-6.824237294E-3
3.197539437E1,-6.963863503E-3,1.012290944E-3,-3.001966281E-3
3.199539593E1,-3.665191471E-4,-3.316125658E-4,1.570796303E-4
3.201539593E1,4.607669078E-3,-9.424777818E-4,4.345869645E-3
3.203539436E1,5.427973811E-3,-3.926991019E-3,5.148721393E-3
3.205539593E1,6.108652451E-4,-1.029744279E-3,2.443460980E-3
3.207539593E1,-9.250245057E-4,-1.727875904E-3,1.431170036E-3
3.209539437E1,-5.480333697E-3,9.424777818E-4,-5.235987483E-4
3.211539593E1,-6.440265104E-3,-7.679448463E-4,-2.565633971E-3
3.213539593E1,-6.632251199E-3,-3.874630900E-3,-4.712388851E-3
3.215539436E1,-5.410520826E-4,-9.145525284E-3,-5.078908056E-3
3.217539436E1,3.385938704E-3,-2.879793290E-3,-7.661995478E-3
3.219539436E1,3.316125658E-4,-4.939281847E-3,-3.525565146E-3
3.221539749E1,-1.396263397E-4,-1.047197497E-3,6.108652451E-4
3.223539437E1,-8.552113432E-4,-8.028514567E-4,3.682644805E-3
3.225539436E1,-1.483529806E-3,-1.221730490E-4,5.916666240E-3
3.227539593E1,-1.745329209E-4,2.443460980E-4,3.228859045E-3
3.229539436E1,2.007128671E-3,2.495820867E-3,1.029744279E-3
3.231539593E1,1.692969352E-3,2.164208330E-3,-5.585053586E-4
3.233539436E1,-4.537856206E-3,-1.745329238E-3,-1.675516134E-3
3.235539593E1,-4.782202188E-3,7.853981806E-4,-4.241149873E-3
3.237539437E1,-4.241149873E-3,-1.343903481E-3,-3.769911127E-3
3.239539436E1,-3.787364578E-3,7.592182141E-3,-7.679448463E-4
3.241539749E1,-3.455751808E-3,1.762782573E-3,2.356194425E-3
3.243539436E1,-1.640609466E-3,-2.443460980E-4,2.478367416E-3
3.245539437E1,1.047197497E-3,-6.632251316E-4,1.727875904E-3
3.247539436E1,3.473205259E-3,-1.274090377E-3,3.455751808E-3
3.249539593E1,-4.014257283E-4,-1.012290944E-3,3.700098023E-3
3.251539749E1,-6.091198884E-3,4.363323096E-4,2.617993741E-4
3.253539436E1,-7.923794910E-3,-8.203047328E-4,-2.809980186E-3
3.255539593E1,-2.914699726E-3,-3.822271014E-3,-4.660028964E-3
3.257539593E1,3.961897455E-3,-1.343903481E-3,-4.153883550E-3
3.259539437E1,4.537856206E-3,-9.250245057E-4,-4.363323096E-4
3.261539593E1,-1.605702913E-3,-8.203047328E-4,5.410520826E-4
3.263539593E1,-9.023352526E-3,-3.839724232E-4,-1.169370604E-3
3.265539436E1,-8.220500313E-3,-5.585053586E-4,-1.762782573E-3
3.267539436E1,-1.431170036E-3,-7.679448463E-4,-2.007128671E-3
3.269539436E1,2.548180753E-3,-3.490658419E-4,-1.413716702E-3
3.271539749E1,1.762782573E-3,1.239183708E-3,-3.839724232E-4
3.273539437E1,-1.431170036E-3,2.356194425E-3,7.330382941E-4
3.275539436E1,-3.682644805E-3,2.478367416E-3,-1.570796303E-4
3.277539593E1,-1.239183708E-3,1.221730490E-3,2.024581889E-3
3.279539436E1,9.250245057E-4,-3.665191471E-4,1.186823938E-3
3.281539593E1,3.857177682E-3,5.550147034E-3,-9.424777818E-4
3.283539436E1,-2.757620299E-3,1.850049011E-3,-3.281218931E-3
3.285539593E1,-7.400196046E-3,-2.007128671E-3,-5.009094719E-3
3.287539593E1,-4.066617228E-3,-5.270894151E-3,-2.094395168E-4
3.289539436E1,8.203047328E-4,-1.326450263E-3,1.047197497E-3
3.291539749E1,4.974188283E-3,-1.012290944E-3,1.745329238E-3
3.293539436E1,3.124139272E-3,-2.216568217E-3,4.886921961E-4
3.295539437E1,7.853981806E-4,-1.867502346E-3,4.712388909E-4
3.297539436E1,1.570796303E-4,-5.061454722E-4,1.169370604E-3
3.299539593E1,2.617993741E-4,1.099557383E-3,2.024581889E-3
3.301539593E1,1.500983140E-3,2.687806962E-3,4.206243437E-3
3.303539436E1,-9.424777818E-4,3.647738136E-3,2.583087189E-3
3.305539593E1,-4.607669078E-3,-5.235987919E-5,-3.839724232E-4
3.307539593E1,-6.283185212E-4,2.268928103E-3,-6.789330859E-3
3.309539437E1,1.047197584E-4,2.914699726E-3,-8.691739291E-3
3.311539593E1,1.396263397E-4,5.410520826E-3,-6.789330859E-3
3.313539593E1,-8.552113432E-4,3.839724232E-4,-3.106686054E-3
3.315539436E1,-1.919862116E-3,6.108652451E-4,5.410520826E-4
3.317539436E1,-2.443460980E-3,1.204277156E-3,4.660028964E-3
3.319539436E1,9.599310579E-4,1.745329246E-5,5.532693584E-3
3.321539749E1,1.378810150E-3,5.235987919E-5,3.979350906E-3
3.323539437E1,-1.588249579E-3,-1.448623254E-3,-1.047197584E-4
3.325539436E1,-4.014257283E-4,-1.937315450E-3,-1.797689125E-3
3.327539593E1,2.792526793E-4,-8.377580671E-4,-1.466076588E-3
3.329539436E1,1.256637042E-3,-1.221730490E-4,-1.762782573E-3
3.331539593E1,-1.029744279E-3,1.745329209E-4,-2.199114766E-3
3.333539436E1,-3.577925032E-3,-1.082104165E-3,-1.989675453E-3
3.335539593E1,-3.001966281E-3,-1.012290944E-3,-3.665191354E-3
3.337539593E1,-5.235987919E-5,5.410520826E-4,-1.291543595E-3
3.339539436E1,8.552113432E-4,-1.570796303E-4,3.839724232E-4
3.341539749E1,2.094395168E-4,-9.599310579E-4,5.585053586E-4
3.343539436E1,-2.617993741E-4,-9.424777818E-4,2.600540640E-3
3.345539437E1,-1.151917269E-3,-8.377580671E-4,2.722713631E-3
3.347539436E1,-7.330382941E-4,4.886921961E-4,-1.396263397E-4
3.349539593E1,-2.268928074E-4,4.363323096E-4,-2.495820867E-3
3.351539593E1,5.235987483E-4,6.981316983E-5,-4.328416660E-3
3.353539436E1,9.250245057E-4,-1.221730490E-4,-3.211405827E-3
3.355539593E1,1.221730490E-3,4.363323096E-4,-2.443460980E-4
3.357539593E1,6.981316983E-5,-7.330382941E-4,1.570796361E-3
3.359539437E1,1.745329209E-4,-6.108652451E-4,4.817108624E-3
3.361539436E1,8.552113432E-4,5.078908056E-3,6.736970972E-3
3.363539593E1,-3.595378250E-3,3.944444004E-3,5.654866807E-3
3.365539436E1,-9.808750823E-3,8.028514567E-4,9.948377265E-4
3.367539436E1,-4.223696887E-3,-4.468042869E-3,-1.745329209E-4
3.369539437E1,6.981316837E-4,-1.047197497E-3,-1.867502346E-3
3.371539749E1,1.972222002E-3,-7.504915702E-4,-3.909537569E-3
3.373539437E1,1.396263367E-3,1.483529806E-3,-5.672320258E-3
3.375539436E1,-1.570796361E-3,1.378810150E-3,-4.904375412E-3
3.377539593E1,-1.727875904E-3,3.141592722E-3,5.759586347E-4
3.379539436E1,-1.221730490E-4,1.937315450E-3,6.230825558E-3
3.381539593E1,5.235987483E-4,4.066617228E-3,1.054178830E-2
3.383539436E1,-4.886921961E-4,7.120943163E-3,9.983283468E-3
3.385539593E1,-3.141592722E-3,7.120943163E-3,5.393067375E-3
3.387539437E1,-4.398229532E-3,7.976154797E-3,-1.989675453E-3
3.389539436E1,-3.228859045E-3,8.133234456E-3,-6.544984877E-3
3.391539749E1,-3.490658477E-3,7.365289610E-3,-7.435102481E-3
3.393539436E1,-2.600540640E-3,6.527531426E-3,-4.607669078E-3
3.395539437E1,-2.234021435E-3,3.979350906E-3,-2.792526793E-4
3.397539436E1,-3.001966281E-3,6.614797749E-3,5.899212789E-3
3.399539593E1,-2.286381321E-3,5.969026126E-3,9.093165398E-3
3.401539593E1,1.047197584E-4,2.740166849E-3,9.773843922E-3
3.403539436E1,1.221730490E-4,3.403391922E-3,6.649704650E-3
3.405539593E1,-2.146754880E-3,2.914699726E-3,1.012290944E-3
3.407539593E1,-2.199114766E-3,4.625122529E-3,-2.495820867E-3
3.409539437E1,-3.508111695E-3,1.308996929E-3,-3.577925032E-3
3.411539593E1,-2.652900526E-3,2.268928103E-3,-1.902408898E-3
3.413539593E1,-1.710422686E-3,2.757620299E-3,2.967059845E-4
3.415539436E1,-3.176499158E-3,2.286381321E-3,1.884955564E-3
3.417539436E1,-2.844886621E-3,3.647738136E-3,9.773843922E-4
3.419539437E1,-2.984513063E-3,1.919862116E-3,-3.490658492E-5
3.421539749E1,-1.326450263E-3,2.478367416E-3,-1.274090377E-3
3.423539437E1,-9.773843922E-4,2.600540640E-3,-3.490658492E-5
3.425539436E1,-1.518436475E-3,3.001966281E-3,1.605702913E-3
3.427539593E1,-3.141592606E-4,1.448623254E-3,3.263765713E-3
3.429539436E1,-1.117010717E-3,2.705260413E-3,4.084070213E-3
3.431539593E1,-1.448623254E-3,2.321287990E-3,2.303834539E-3
3.433539436E1,-2.967059845E-4,4.049163777E-3,3.420845373E-3
3.435539593E1,-1.221730490E-4,1.675516134E-3,3.490658492E-5
3.437539437E1,-2.478367416E-3,3.752457909E-3,-1.919862116E-4
3.439539436E1,-3.577925032E-3,2.251474652E-3,-1.919862116E-4
3.441539749E1,1.117010717E-3,1.448623254E-3,1.064650831E-3
3.443539436E1,1.134464052E-3,5.323254038E-3,5.759586347E-4
3.445539437E1,-3.071779385E-3,2.076941775E-3,7.155850180E-4
3.447539436E1,-5.462880712E-3,-3.543018363E-3,4.712388909E-4
3.449539593E1,-2.234021435E-3,-4.991641734E-3,-1.221730490E-4
3.451539593E1,1.047197497E-3,-1.169370604E-3,-1.919862116E-4
3.453539593E1,1.745329209E-4,2.443460980E-4,-1.832595677E-3
3.455539593E1,-2.443460980E-4,7.155850180E-4,-1.588249579E-3
3.457539593E1,-1.745329209E-4,5.235987483E-4,2.216568217E-3
3.459539437E1,4.712388909E-4,7.679448463E-4,6.859143730E-3
3.461539593E1,8.726646192E-4,1.535889693E-3,5.864306353E-3
3.463539593E1,-6.283185212E-4,1.745329238E-3,4.520402756E-3
3.465539436E1,-1.762782573E-3,4.694935866E-3,8.203047328E-4
3.467539436E1,-3.717551241E-3,4.712388851E-3,-3.804817796E-3
3.469539437E1,-3.647738136E-3,3.665191354E-3,-6.091198884E-3
3.471539749E1,-3.246312495E-3,3.176499158E-3,-4.223696887E-3
3.473539437E1,-1.169370604E-3,2.181661548E-3,2.617993741E-4
3.475539436E1,-6.283185212E-4,1.518436475E-3,4.363323096E-4
3.477539593E1,-4.886921961E-4,2.024581889E-3,1.413716702E-3
3.479539436E1,-1.745329209E-4,1.850049011E-3,2.007128671E-3
3.481539593E1,-4.363323096E-4,-1.396263397E-4,2.338741207E-3
3.483539436E1,-2.443460980E-4,-1.012290944E-3,4.502949305E-3
3.485539593E1,-3.141592606E-4,-7.155850180E-4,4.852015525E-3
3.487539437E1,2.617993741E-4,-8.203047328E-4,3.490658477E-3
3.489539436E1,-1.047197497E-3,2.652900526E-3,5.934119690E-4
3.491539749E1,-1.256637042E-3,-6.981316983E-5,-5.410520826E-3
3.493539436E1,-8.028514567E-4,-8.203047328E-4,-4.974188283E-3
3.495539437E1,-2.443460980E-4,4.014257283E-4,-3.839724232E-3
3.497539436E1,-3.316125658E-4,1.797689125E-3,-7.155850180E-4
3.499539593E1,-5.934119690E-4,7.155850180E-4,3.490658492E-5
3.501539593E1,-2.565633971E-3,-5.061454722E-4,1.221730490E-4
3.503539436E1,-1.850049011E-3,-4.712388909E-4,-3.490658492E-5
3.505539437E1,1.745329246E-5,1.692969352E-3,-1.919862116E-4
3.507539593E1,4.886921961E-4,5.585053586E-4,2.076941775E-3
3.509539437E1,1.221730490E-4,6.457717973E-4,4.782202188E-3
3.511539749E1,1.221730490E-4,5.934119690E-4,3.281218931E-3
3.513539593E1,-1.099557383E-3,2.129301662E-3,9.075712296E-4
3.515539436E1,-1.099557383E-3,-3.490658492E-5,1.570796303E-4
3.517539436E1,3.106686054E-3,1.797689125E-3,-1.221730490E-3
3.519539437E1,4.468042869E-3,4.694935866E-3,-1.151917269E-3
3.521539749E1,-1.884955564E-3,3.490658477E-3,-1.815142459E-3
3.523539437E1,-4.014257342E-3,-5.585053586E-4,-1.169370604E-3
3.525539436E1,-8.552113432E-4,-2.967059612E-3,1.658062800E-3
3.527539593E1,4.537856148E-4,-1.099557383E-3,4.136430100E-3
3.529539436E1,1.361356815E-3,8.552113432E-4,4.136430100E-3
3.531539593E1,1.832595677E-3,6.283185212E-4,2.827433404E-3
3.533539436E1,2.216568217E-3,1.588249579E-3,7.504915702E-4
3.535539593E1,2.146754880E-3,-8.377580671E-4,2.094395168E-4
3.537539437E1,4.014257283E-4,0.000000000E0,-5.061454722E-4
3.539539436E1,-1.745329238E-3,-2.792526793E-4,-3.019419499E-3
3.541539749E1,-3.263765713E-3,1.378810150E-3,-1.570796361E-3
3.543539436E1,-2.635447076E-3,1.989675453E-3,-1.937315450E-3
3.545539437E1,-4.276056774E-3,-3.141592606E-4,-2.024581889E-3
3.547539436E1,-2.827433404E-3,4.363323096E-4,-1.605702913E-3
3.549539593E1,-1.605702913E-3,-2.478367416E-3,-5.235987919E-5
3.551539593E1,1.047197584E-4,-2.059488557E-3,8.028514567E-4
3.553539436E1,1.221730490E-4,-5.235987919E-5,8.552113432E-4
3.555539437E1,-1.675516134E-3,2.251474652E-3,5.410520826E-4
3.557539593E1,-2.216568217E-3,1.431170036E-3,6.981316837E-4
3.559539437E1,-1.483529806E-3,-1.919862116E-4,-6.981316983E-5
3.561539593E1,-1.535889693E-3,1.396263397E-4,-1.012290944E-3
3.563539593E1,1.483529806E-3,4.188790335E-4,-3.106686054E-3
3.565539436E1,6.981316837E-4,2.146754880E-3,-2.617993858E-3
3.567539436E1,1.396263397E-4,1.570796361E-3,8.726646047E-5
3.569539437E1,-4.886921961E-4,1.518436475E-3,1.291543595E-3
3.571539749E1,-8.552113432E-4,3.141592606E-4,2.094394993E-3
3.573539437E1,5.585053586E-4,8.552113432E-4,4.084070213E-3
3.575539436E1,1.727875904E-3,-5.235987483E-4,2.967059612E-3
3.577539593E1,6.981316837E-4,7.679448463E-4,3.036872949E-3
3.579539436E1,2.094395168E-4,1.134464052E-3,1.274090377E-3
3.581539593E1,-1.919862116E-4,1.413716702E-3,-2.443460980E-4
3.583539436E1,6.457717973E-4,1.466076588E-3,9.599310579E-4
3.585539593E1,1.361356815E-3,1.972222002E-3,1.396263367E-3
3.587539437E1,1.221730490E-4,3.979350906E-3,-2.792526793E-4
3.589539436E1,-2.967059845E-4,2.303834539E-3,-1.919862116E-4
3.591539749E1,1.675516134E-3,1.658062800E-3,-8.726646047E-5
3.593539593E1,5.585053586E-4,2.809980186E-3,-1.169370604E-3
3.595539437E1,-4.066617228E-3,-3.141592606E-4,-3.263765713E-3
3.597539436E1,-5.340707488E-3,-6.283185445E-3,-2.984513063E-3
3.599539593E1,-1.047197497E-3,-9.372417815E-3,-1.780235791E-3
3.601539593E1,-1.919862116E-4,-8.342674002E-3,-2.670353744E-3
3.603539436E1,-2.705260413E-3,-4.433136433E-3,-4.974188283E-3
3.605539437E1,-1.029744279E-3,-5.305801053E-3,-4.625122529E-3
3.607539593E1,-8.726646047E-5,-6.108652335E-3,-3.141592606E-4
3.609539437E1,4.188790335E-4,-3.228859045E-3,3.543018363E-3
3.611539593E1,1.396263397E-4,-1.256637042E-3,2.286381321E-3
3.613539593E1,-2.949606394E-3,-3.839724232E-4,-1.221730490E-4
3.615539436E1,-2.286381321E-3,1.186823938E-3,-7.330382941E-4
3.617539436E1,-2.286381321E-3,-7.853981806E-4,-3.316125600E-3
3.619539437E1,-9.948377265E-4,-4.537856148E-4,-2.303834539E-3
3.621539749E1,-4.450589418E-3,1.169370604E-3,-4.433136433E-3
3.623539437E1,-3.525565146E-3,3.839724232E-4,-3.560471581E-3
3.625539436E1,-2.792526735E-3,-1.047197584E-4,-2.216568217E-3
3.627539593E1,-3.665191471E-4,-7.679448463E-4,5.235987919E-5
3.629539436E1,5.934119690E-4,1.919862116E-4,1.815142459E-3
3.631539593E1,1.396263397E-4,8.028514567E-4,4.991641734E-3
3.633539436E1,-1.745329246E-5,6.981316983E-5,7.993607782E-3
3.635539749E1,-1.972222002E-3,1.745329246E-5,4.049163777E-3
3.637539437E1,-2.129301662E-3,-6.457717973E-4,-6.108652451E-4
3.639539436E1,-2.268928103E-3,5.585053586E-4,-3.804817796E-3
3.641539749E1,-6.632251316E-4,1.082104165E-3,-5.323254038E-3
3.643539593E1,3.316125658E-4,-1.029744279E-3,-5.393067375E-3
3.645539437E1,3.490658492E-5,-1.413716702E-3,-2.775073517E-3
3.647539436E1,-1.850049011E-3,3.141592606E-4,5.235987919E-5
3.649539593E1,-3.193952609E-3,1.919862116E-4,1.134464052E-3
3.651539593E1,-2.408554312E-3,-6.806784077E-4,4.363323096E-4
3.653540062E1,-6.283185212E-4,-1.378810150E-3,9.424777818E-4
3.655539593E1,1.396263367E-3,-3.839724232E-4,1.169370604E-3
3.657539593E1,9.250245057E-4,-5.585053586E-4,8.203047328E-4
3.659539437E1,-6.283185212E-4,1.867502346E-3,4.014257283E-4
3.661539593E1,-1.012290944E-3,2.967059612E-3,-1.466076588E-3
3.663539593E1,-1.221730490E-3,2.967059845E-4,-2.024581889E-3
3.665539436E1,4.014257283E-4,3.106686054E-3,-2.251474652E-3
3.667539436E1,2.094395168E-4,2.408554312E-3,-2.687806962E-3
3.669539437E1,-2.775073517E-3,-1.343903481E-3,-1.710422686E-3
3.671539749E1,-3.193952609E-3,-6.230825558E-3,-3.316125658E-4
3.673539437E1,6.806784077E-4,-7.225662936E-3,1.675516134E-3
3.675539436E1,3.682644805E-3,-3.700098023E-3,-1.745329209E-4
3.677539593E1,1.832595677E-3,-1.239183708E-3,-1.099557383E-3
3.679539436E1,8.028514567E-4,-1.780235791E-3,7.853981806E-4
3.681539593E1,1.605702913E-3,-2.024581889E-3,2.984513063E-3
3.683539436E1,2.617993858E-3,-1.012290944E-3,4.293509759E-3
3.685539593E1,3.665191354E-3,2.495820867E-3,2.635447076E-3
3.687539437E1,6.283185212E-4,5.270894151E-3,9.250245057E-4
3.689539436E1,-1.047197497E-3,3.298672382E-3,-9.773843922E-4
3.691539749E1,-3.141592722E-3,7.330382941E-4,-4.049163777E-3
3.693539593E1,-1.274090377E-3,1.151917269E-3,-7.470009383E-3
3.695539437E1,8.203047328E-4,2.234021435E-3,-7.784168236E-3
3.697539436E1,1.256637042E-3,-6.457717973E-4,-5.602506921E-3
3.699539593E1,4.537856148E-4,-1.012290944E-3,-3.839724232E-4
3.701539593E1,1.396263397E-4,-1.134464052E-3,2.652900526E-3
3.703539436E1,1.221730490E-4,-1.884955564E-3,5.235987715E-3
3.705539437E1,-6.283185212E-4,-3.228859045E-3,6.108652335E-3
3.707539593E1,-1.762782573E-3,-4.101523664E-3,2.513274085E-3
3.709539437E1,-1.570796361E-3,-7.086036727E-3,-5.270894151E-3
3.711539593E1,-3.316125658E-4,-4.921828397E-3,-8.203047328E-3
3.713539593E1,8.377580671E-4,-1.570796361E-3,-6.684611086E-3
3.715539436E1,-4.014257283E-4,-2.548180753E-3,-4.502949305E-3
3.717539436E1,-3.804817796E-3,-4.939281847E-3,-3.839724232E-4
3.719539437E1,-1.483529806E-3,-2.478367416E-3,3.071779385E-3
3.721539749E1,-3.490658419E-4,-5.759586347E-4,2.635447076E-3
3.723539593E1,3.839724232E-4,-1.815142459E-3,-1.745329238E-3
3.725539436E1,5.934119690E-4,-2.740166849E-3,-5.654866807E-3
3.727539593E1,-7.504915702E-4,-2.722713631E-3,-7.295476273E-3
3.729539436E1,-3.892084118E-3,-2.844886621E-3,-5.218534265E-3
3.731539593E1,-3.246312495E-3,-6.981316837E-4,-5.235987483E-4
3.733539436E1,-2.844886621E-3,-3.263765713E-3,9.773843922E-4
3.735539593E1,-2.530727303E-3,-7.051130291E-3,3.543018363E-3
3.737539437E1,2.268928074E-4,-2.897246508E-3,9.424777818E-4
3.739539436E1,-1.448623254E-3,-2.792526735E-3,-3.141592606E-4
3.741539749E1,-3.944444004E-3,-4.485496320E-3,-5.323254038E-3
3.743539593E1,-4.363323096E-3,-7.382742595E-3,-6.597344764E-3
3.745539437E1,-1.326450263E-3,-1.029744279E-2,-4.939281847E-3
3.747539436E1,1.221730490E-3,-8.534659632E-3,-4.764748737E-3
3.749539593E1,5.218534265E-3,-3.892084118E-3,-3.490658492E-5
3.751539593E1,1.710422686E-3,-9.424777818E-4,2.391101094E-3
3.753539436E1,-3.228859045E-3,-1.186823938E-3,3.490658477E-3
3.755539437E1,-4.729842301E-3,-2.007128671E-3,-2.146754880E-3
3.757539593E1,-7.853981806E-4,-2.146754880E-3,-5.044001620E-3
3.759539437E1,4.328416660E-3,-1.588249579E-3,-4.066617228E-3
3.761539593E1,5.934119225E-3,-1.099557383E-3,-1.745329238E-3
3.763539593E1,-2.914699726E-3,1.012290944E-3,7.330382941E-4
3.765539436E1,-1.040216256E-2,3.700098023E-3,5.585053586E-4
3.767539436E1,-9.599311277E-3,-1.396263397E-4,-1.570796303E-4
3.769539437E1,-1.692969352E-3,3.839724232E-4,-9.250245057E-4
3.771539749E1,5.707226694E-3,7.853981806E-4,-2.076941775E-3
3.773539593E1,3.909537569E-3,2.617993741E-4,-2.216568217E-3
3.775539436E1,-1.989675453E-3,-8.203047328E-4,3.490658492E-5
3.777539749E1,-5.515240598E-3,-9.599310579E-4,4.398229532E-3
3.779539436E1,-4.537856206E-3,-2.792526793E-4,4.049163777E-3
3.781539593E1,-3.001966281E-3,-1.326450263E-3,6.632251316E-4
3.783539436E1,3.316125658E-4,-5.585053586E-4,-2.181661548E-3
3.785539593E1,1.605702913E-3,-1.186823938E-3,-5.445427261E-3
3.787539437E1,-3.490658419E-4,-1.815142459E-3,-6.195918657E-3
3.789539436E1,-2.286381321E-3,-1.919862116E-4,-3.124139272E-3
3.791539749E1,-2.600540640E-3,1.762782573E-3,2.338741207E-3
3.793539593E1,-6.108652451E-4,1.326450263E-3,4.310963210E-3
3.795539437E1,-8.726646047E-5,2.635447076E-3,2.583087189E-3
3.797539436E1,8.552113432E-4,1.640609466E-3,3.490658419E-4
3.799539593E1,-1.221730490E-4,2.757620299E-3,-1.745329209E-4
3.801539593E1,-4.363323096E-4,4.852015525E-3,-3.665191471E-4
3.803539436E1,1.710422686E-3,2.443460980E-3,3.124139272E-3
3.805539437E1,3.019419499E-3,6.143558770E-3,5.602506921E-3
3.807539593E1,-1.256637042E-3,5.532693584E-3,5.899212789E-3
3.809539437E1,-6.597344764E-3,2.897246508E-3,1.535889693E-3
3.811539593E1,-3.595378250E-3,-3.892084118E-3,-1.919862116E-4
3.813539593E1,5.410520826E-4,-2.443460980E-3,-2.181661548E-3
3.815539436E1,1.675516134E-3,1.047197497E-3,-1.972222002E-3
3.817539436E1,1.221730490E-4,2.268928103E-3,6.632251316E-4
3.819539437E1,5.585053586E-4,3.839724232E-4,4.468042869E-3
3.821539593E1,-3.316125658E-4,7.155850180E-4,8.831365965E-3
3.823539437E1,-5.235987483E-4,-5.235987919E-5,5.183627829E-3
3.825539436E1,1.745329246E-5,3.403391922E-3,1.064650831E-3
3.827539593E1,-1.623156248E-3,4.101523664E-3,-2.199114766E-3
3.829539436E1,-3.193952609E-3,3.333578818E-3,-3.769911127E-3
3.831539593E1,-2.234021435E-3,3.298672382E-3,-3.822271014E-3
3.833539436E1,-2.111848444E-3,5.009094719E-3,-2.635447076E-3
3.835539593E1,-4.118977115E-3,5.707226694E-3,5.235987919E-5
3.837539437E1,-2.967059612E-3,4.974188283E-3,1.989675453E-3
3.839539436E1,-9.773843922E-4,3.909537569E-3,1.902408898E-3
3.841539749E1,-9.948377265E-4,2.687806962E-3,6.108652451E-4
3.843539593E1,-5.235987919E-5,2.652900526E-3,1.640609466E-3
3.845539437E1,7.853981806E-4,2.059488557E-3,3.141592722E-3
3.847539436E1,1.047197584E-4,9.773843922E-4,4.450589418E-3
3.849539593E1,-7.155850180E-4,7.504915702E-4,3.595378250E-3
3.851539593E1,-7.853981806E-4,1.134464052E-3,2.199114766E-3
3.853539749E1,-1.343903481E-3,1.989675453E-3,1.151917269E-3
3.855539437E1,-1.570796303E-4,4.188790335E-4,-1.221730490E-4
3.857539593E1,6.108652451E-4,4.014257283E-4,-7.155850180E-4
3.859539437E1,-1.221730490E-3,9.773843922E-4,-2.460914198E-3
3.861539593E1,-1.134464052E-3,2.949606394E-3,-1.727875904E-3
3.863539593E1,-9.948377265E-4,2.146754880E-3,-1.832595677E-3
3.865539436E1,-1.047197497E-3,1.012290944E-3,-2.094395168E-4
3.867539436E1,1.047197584E-4,5.585053586E-4,1.570796361E-3
3.869539437E1,2.094395168E-4,2.024581889E-3,2.373647876E-3
3.871539749E1,6.981316983E-5,4.660028964E-3,6.283185212E-4
3.873539437E1,-3.141592606E-4,9.250245057E-4,-1.745329209E-4
3.875539436E1,1.117010717E-3,1.797689125E-3,6.283185212E-4
3.877539593E1,1.745329209E-4,2.984513063E-3,1.466076588E-3
3.879539436E1,-3.263765713E-3,1.378810150E-3,-1.047197584E-4
3.881539593E1,-4.380776547E-3,-3.595378250E-3,-1.588249579E-3
3.883539436E1,-8.726646192E-4,-4.869468510E-3,-7.504915702E-4
3.885539593E1,1.431170036E-3,-3.141592722E-3,-3.839724232E-4
3.887539437E1,3.159045940E-3,-9.599310579E-4,-1.570796303E-4
3.889539436E1,1.570796361E-3,2.792526793E-4,7.853981806E-4
3.891539749E1,3.316125658E-4,-6.457717973E-4,1.623156248E-3
3.893539593E1,-1.780235791E-3,-7.504915702E-4,1.780235791E-3
3.895539437E1,3.490658492E-5,1.047197584E-4,-6.981316983E-5
3.897539436E1,2.967059845E-4,1.047197584E-4,-1.919862116E-4
3.899539593E1,-2.408554312E-3,2.408554312E-3,9.773843922E-4
3.901539593E1,-4.031710327E-3,1.710422686E-3,-2.967059845E-4
3.903539436E1,-4.014257342E-3,3.351032268E-3,-5.183627829E-3
3.905539437E1,-1.727875904E-3,2.251474652E-3,-3.420845373E-3
3.907539593E1,-3.665191471E-4,-6.981316983E-5,-3.926991019E-3
3.909539437E1,-3.141592606E-4,-3.839724232E-4,-2.600540640E-3
3.911539593E1,-1.832595677E-3,-1.012290944E-3,-2.268928074E-4
3.913539593E1,-2.024581889E-3,1.099557383E-3,3.682644805E-3
3.915539436E1,-6.981316837E-4,-4.886921961E-4,7.400196046E-3
3.917539436E1,-3.839724232E-4,-9.424777818E-4,5.672320258E-3
3.919539437E1,-1.256637042E-3,-1.745329209E-4,8.377580671E-4
3.921539749E1,-2.460914198E-3,-2.443460980E-4,-4.799655639E-3
3.923539593E1,3.839724232E-4,2.792526793E-4,-6.475171540E-3
3.925539436E1,1.029744279E-3,1.570796303E-4,-6.911503617E-3
3.927539593E1,4.188790335E-4,-1.012290944E-3,-4.694935866E-3
3.929539436E1,-1.396263367E-3,-9.075712296E-4,-2.094395168E-4
3.931539593E1,-2.251474652E-3,4.363323096E-4,2.705260413E-3
3.933539436E1,-3.647738136E-3,-1.570796303E-4,3.996803891E-3
3.935539593E1,-1.117010717E-3,-1.012290944E-3,1.204277156E-3
3.937539437E1,-1.082104165E-3,-2.251474652E-3,4.886921961E-4
3.939539436E1,8.726646047E-5,-2.111848444E-3,-6.632251316E-4
3.941539749E1,7.504915702E-4,6.283185212E-4,-2.094395168E-4
3.943539593E1,2.617993741E-4,1.570796303E-4,-1.535889693E-3
3.945539437E1,-8.203047328E-4,-9.424777818E-4,6.457717973E-4
3.947539436E1,1.570796303E-4,1.553343027E-3,1.518436475E-3
3.949539593E1,-1.588249579E-3,2.199114766E-3,1.745329238E-3
3.951539593E1,-5.934119225E-3,-5.061454722E-4,-3.316125658E-4
3.953539436E1,-3.124139272E-3,-5.393067375E-3,-1.378810150E-3
