"Time (s)","Acceleration x (m/s^2)","Acceleration y (m/s^2)","Acceleration z (m/s^2)"
1.233838000E-2,6.752050877E0,7.212800503E0,-1.380113602E0
3.233838000E-2,6.817613602E0,7.117070675E0,-1.510444283E0
5.233681800E-2,6.807549477E0,7.132728577E0,-1.293615818E0
7.233838000E-2,6.744369984E0,7.206297874E0,-9.907302260E-1
9.233681800E-2,6.659625053E0,7.227577686E0,-1.054205298E0
1.123477550E-1,6.562928200E0,7.143033504E0,-1.282947302E0
1.323399430E-1,6.805719376E0,7.197267056E0,-1.220688462E0
1.523368180E-1,6.650210857E0,7.248742104E0,-1.124642730E0
1.723383800E-1,6.670475483E0,7.307639599E0,-1.362884879E0
1.923383800E-1,6.683672428E0,7.282864571E0,-1.477251172E0
2.123399430E-1,6.676882267E0,7.237489700E0,-1.417089581E0
2.323368180E-1,6.743249893E0,7.203932285E0,-1.252378106E0
2.523383800E-1,6.874825478E0,7.184012413E0,-1.082945228E0
2.723430680E-1,6.776184082E0,7.190352440E0,-1.226875067E0
2.923383800E-1,6.574831963E0,7.285920620E0,-1.503501177E0
3.123399430E-1,6.499577522E0,7.347009659E0,-1.520049810E0
3.323399430E-1,6.890023708E0,7.197573185E0,-1.306793571E0
3.523383800E-1,6.947063446E0,7.138676167E0,-9.710403085E-1
3.723399430E-1,6.800691128E0,7.263289452E0,-9.848021269E-1
3.923383800E-1,6.688594818E0,7.333707809E0,-1.033959866E0
4.123368180E-1,6.682685852E0,7.397498608E0,-1.060238719E0
4.323383800E-1,6.622409344E0,7.419247627E0,-1.064634442E0
4.523368180E-1,6.750422478E0,7.394233227E0,-1.154828787E0
4.723415050E-1,6.848077297E0,7.329484463E0,-1.136814833E0
4.923368180E-1,6.579735279E0,7.376506329E0,-1.256400347E0
5.123368180E-1,6.334568977E0,7.441015720E0,-1.487938881E0
5.323415050E-1,6.186214924E0,7.495431423E0,-1.630853534E0
5.523383800E-1,6.190734863E0,7.463396549E0,-1.484883785E0
5.723368180E-1,6.197812080E0,7.435346127E0,-1.405903935E0
5.923368180E-1,6.171715260E0,7.465197086E0,-1.428457260E0
6.123383800E-1,6.250235558E0,7.448073864E0,-1.296316504E0
6.323368180E-1,6.256000996E0,7.432081699E0,-1.241795778E0
6.523368180E-1,6.170393944E0,7.505477428E0,-1.272757530E0
6.723383800E-1,6.059733868E0,7.579343319E0,-1.391040683E0
6.923383800E-1,5.968735218E0,7.599942684E0,-1.459476590E0
7.123383800E-1,5.960728645E0,7.559413910E0,-1.436530590E0
7.323399430E-1,6.026042461E0,7.550354004E0,-1.552860022E0
7.523383800E-1,6.131732464E0,7.520369053E0,-1.451604486E0
7.723368180E-1,6.144843102E0,7.507996082E0,-1.351718307E0
7.923383800E-1,6.018955708E0,7.591716290E0,-1.386463046E0
8.123399430E-1,6.025171280E0,7.629314899E0,-1.459955454E0
8.323415050E-1,6.229454041E0,7.559193611E0,-1.351277828E0
8.523368180E-1,6.227059841E0,7.543726921E0,-1.250146747E0
8.723368180E-1,6.169369221E0,7.578462124E0,-1.204551578E0
8.923399430E-1,6.212771416E0,7.604520798E0,-1.067909718E0
9.123383800E-1,6.215586662E0,7.621720314E0,-9.500191808E-1
9.323477550E-1,6.162607670E0,7.601973057E0,-1.039725184E0
9.523368180E-1,6.165844917E0,7.630761147E0,-1.120266080E0
9.723383800E-1,6.228783607E0,7.603878975E0,-1.060181141E0
9.923383800E-1,6.272827148E0,7.602317810E0,-9.144988060E-1
1.012336818E0,6.273373127E0,7.619115829E0,-9.127749801E-1
1.032339943E0,6.219293118E0,7.657815456E0,-9.618657231E-1
1.052338380E0,6.189738750E0,7.658648491E0,-9.855491519E-1
1.072338380E0,6.187641621E0,7.615352154E0,-1.001456261E0
1.092341505E0,6.184846401E0,7.643028736E0,-9.502394795E-1
1.112338380E0,6.241300583E0,7.670294285E0,-8.036281466E-1
1.132339943E0,6.352362633E0,7.610689163E0,-6.851534843E-1
1.152338380E0,6.335057259E0,7.612009525E0,-7.028896809E-1
1.172338380E0,6.124348640E0,7.678405762E0,-7.679257989E-1
1.192338380E0,6.028790951E0,7.737015724E0,-6.956592202E-1
1.212338380E0,6.139096737E0,7.680253983E0,-6.076387763E-1
1.232336818E0,6.171734810E0,7.660286427E0,-5.178466439E-1
1.252338380E0,6.171945095E0,7.680397511E0,-4.160835147E-1
1.272338380E0,6.131732464E0,7.696467400E0,-5.678471327E-1
1.292338380E0,6.020871162E0,7.724460602E0,-6.345112920E-1
1.312336818E0,5.957635403E0,7.743690968E0,-6.009254456E-1
1.332338380E0,5.951420307E0,7.747435093E0,-5.456864238E-1
1.352336818E0,6.146089077E0,7.687359810E0,-5.527732372E-1
1.372338380E0,6.263135433E0,7.633241653E0,-4.545056522E-1
1.392339943E0,6.126800060E0,7.653390884E0,-5.041996837E-1
1.412336818E0,5.957530022E0,7.686986446E0,-4.874498546E-1
1.432338380E0,5.978847980E0,7.691479206E0,-4.290122092E-1
1.452338380E0,6.091873646E0,7.654818058E0,-2.447927445E-1
1.472338380E0,6.273009300E0,7.613043785E0,7.556100190E-2
1.492341505E0,6.187632084E0,7.671816826E0,1.587259918E-1
1.512336818E0,6.097323895E0,7.728185654E0,3.325833380E-1
1.532372755E0,6.042916775E0,7.720294476E0,5.510782003E-1
1.552338380E0,6.071494102E0,7.729240417E0,5.685941577E-1
1.572338380E0,6.101067543E0,7.707729816E0,5.527637005E-1
1.592338380E0,6.058239937E0,7.707863808E0,6.836882234E-1
1.612338380E0,6.016312599E0,7.747425556E0,7.828656435E-1
1.632338380E0,6.052848339E0,7.744533539E0,7.490211725E-1
1.652336818E0,6.087554455E0,7.732064724E0,7.399232388E-1
1.672339943E0,6.161478043E0,7.732332706E0,8.225327730E-1
1.692338380E0,6.089057922E0,7.758611202E0,8.496159315E-1
1.712338380E0,6.032861233E0,7.770936966E0,8.094220757E-1
1.732339943E0,6.055788040E0,7.694283962E0,8.575838804E-1
1.752338380E0,6.016858578E0,7.729469299E0,8.448945880E-1
1.772338380E0,6.014272690E0,7.755786419E0,7.191128135E-1
1.792338380E0,6.143598080E0,7.691927910E0,6.922498941E-1
1.812338380E0,6.106736660E0,7.711445808E0,6.979289055E-1
1.832338380E0,6.076742172E0,7.757548332E0,6.144670248E-1
1.852344630E0,6.076052666E0,7.703717232E0,6.202131510E-1
1.872338380E0,6.131866455E0,7.688413620E0,5.771558285E-1
1.892339943E0,6.050569057E0,7.678367138E0,6.376333237E-1
1.912338380E0,5.924308300E0,7.720170021E0,5.950357318E-1
1.932339943E0,5.974098206E0,7.710056782E0,5.299134254E-1
1.952336818E0,6.125622272E0,7.645298481E0,4.719641805E-1
1.972338380E0,6.098730564E0,7.665132046E0,5.004456043E-1
1.992338380E0,6.102216721E0,7.682341576E0,6.004753113E-1
2.012338380E0,6.093884945E0,7.681058407E0,5.960987210E-1
2.032339943E0,6.103921413E0,7.652356625E0,5.140255094E-1
2.052338380E0,6.095330715E0,7.632542133E0,4.987026155E-1
2.072338380E0,6.123333454E0,7.670533657E0,6.523050070E-1
2.092336818E0,6.138819218E0,7.704732418E0,8.599588871E-1
2.112338380E0,6.013056278E0,7.687024593E0,9.846489429E-1
2.132338380E0,5.890348911E0,7.731221676E0,1.129067183E0
2.152336818E0,5.982410908E0,7.769835472E0,1.217537761E0
2.172339943E0,6.119272709E0,7.783271790E0,1.224547982E0
2.192339943E0,6.163967609E0,7.744495392E0,1.220314980E0
2.212336818E0,5.991317272E0,7.750078678E0,1.173082113E0
2.232336818E0,5.954245090E0,7.741727352E0,1.209282517E0
2.252338380E0,5.935867310E0,7.752750397E0,1.210833907E0
2.272338380E0,5.942513943E0,7.719585896E0,1.212701440E0
2.292338380E0,5.863304138E0,7.754349709E0,1.156456828E0
2.312336818E0,5.868580818E0,7.806189060E0,1.127716780E0
2.332338380E0,5.912270069E0,7.755920410E0,1.016022563E0
2.352339943E0,5.885723114E0,7.715429783E0,1.067603230E0
2.372336818E0,5.812029839E0,7.709511280E0,1.053870082E0
2.392339943E0,5.746706486E0,7.787361145E0,1.063284039E0
2.412338380E0,5.814347267E0,7.777266979E0,9.870622754E-1
2.432338380E0,5.841784954E0,7.741832733E0,1.026068568E0
2.452336818E0,5.966925144E0,7.743806839E0,9.855874777E-1
2.472343068E0,5.995311737E0,7.726423740E0,1.091104746E0
2.492338380E0,5.964013577E0,7.722833633E0,1.083357096E0
2.512336818E0,5.896037579E0,7.719509125E0,1.022927403E0
2.532338380E0,5.849389076E0,7.729775429E0,9.824462533E-1
2.552336818E0,5.907002926E0,7.736613274E0,9.953941107E-1
2.572338380E0,5.985657215E0,7.673885345E0,1.051495075E0
2.592336818E0,5.977296829E0,7.606608391E0,8.883828521E-1
2.612338380E0,6.093262196E0,7.605602741E0,7.591534257E-1
2.632338380E0,6.271831512E0,7.592099667E0,7.741794586E-1
2.652338380E0,6.110500336E0,7.602586269E0,7.103500366E-1
2.672339943E0,5.921061516E0,7.601341248E0,8.555152416E-1
2.692338380E0,5.971761227E0,7.531239033E0,1.069604754E0
2.712338380E0,5.964531898E0,7.390258789E0,7.088273168E-1
2.732336818E0,5.791181087E0,7.164820671E0,-2.827073261E-2
2.752338380E0,5.537577629E0,6.970210552E0,2.037178278E-1
2.772338380E0,4.865103722E0,6.928522587E0,1.256649375E0
2.792338380E0,3.957078934E0,6.555946350E0,2.299812555E0
2.812338380E0,3.536666632E0,6.098826408E0,3.092542410E0
2.832338380E0,3.602660418E0,5.325479984E0,3.486216068E0
2.852336818E0,3.049408436E0,5.250378609E0,3.470356941E0
2.872336818E0,2.709901094E0,4.682244301E0,4.131501198E0
2.892339943E0,2.778346539E0,4.172662258E0,5.287010193E0
2.912338380E0,2.795469761E0,4.137343407E0,6.825753689E0
2.932346193E0,2.986335516E0,4.124557972E0,7.586161613E0
2.952336818E0,2.963849306E0,3.245330811E0,6.668876171E0
2.972338380E0,2.572674990E0,2.826393366E0,5.522934914E0
2.992338380E0,2.242064476E0,2.618471146E0,7.232758522E0
3.012336818E0,3.016301394E0,2.482605219E0,8.906200409E0
3.032338380E0,3.104091883E0,1.931728005E0,8.795166969E0
3.052338380E0,2.361985207E0,1.610330462E0,8.721320152E0
3.072336818E0,2.828222513E0,1.956675649E0,9.817692757E0
3.092336818E0,4.199190140E0,1.779887795E0,1.047730350E1
3.112338380E0,4.330947876E0,1.568652153E0,1.066891670E1
3.132339943E0,3.755985260E0,1.108036518E0,1.016787815E1
3.152336818E0,2.595190048E0,1.092962623E0,9.850646019E0
3.172338380E0,2.558032036E0,1.573852301E-1,9.121811867E0
3.192338380E0,3.357015371E0,-1.921394616E-1,9.272551537E0
3.212336818E0,2.174299002E0,-2.439212650E-1,1.120400238E1
3.232344630E0,-4.049839973E-1,1.765101254E-1,5.044362545E0
3.252338380E0,-3.116283178E0,-8.591831923E-1,1.956190300E1
3.272338380E0,-2.465558290E0,-1.601941109E0,1.439010048E1
3.292341505E0,4.198471829E-2,-1.491616368E0,1.144703197E1
3.312336818E0,2.049350262E0,-7.462151647E-1,1.086390972E1
3.332339943E0,2.001083374E0,-1.803197742E0,1.056521988E1
3.352336818E0,1.043067455E0,-1.353537917E0,7.918055534E0
3.372336818E0,-2.591771185E-1,-9.053816795E-1,8.591879845E0
3.392339943E0,2.014002353E-1,-4.457524419E-1,1.051956654E1
3.412338380E0,9.330108166E-1,-7.243992090E-1,1.003556442E1
3.432336818E0,7.023725510E-1,-8.221784234E-1,8.986061096E0
3.452336818E0,1.240167737E0,-7.542022467E-1,8.768801689E0
3.472338380E0,2.106054544E0,-1.171166778E0,9.497827530E0
3.492339943E0,2.613204002E0,-1.357167602E0,8.680225372E0
3.512336818E0,2.028310061E0,-1.382718444E0,8.062589645E0
3.532338380E0,1.667369843E0,-1.638371348E0,7.169447422E0
3.552338380E0,1.653004646E0,-2.188415289E0,6.607948303E0
3.572338380E0,5.782667398E-1,-1.924794436E0,7.671740055E0
3.592336818E0,-1.435180187E0,-1.072056413E0,1.146572685E1
3.612338380E0,-2.694223881E0,-9.894756675E-1,1.112925625E1
3.632336818E0,-2.667399168E0,-2.596367896E-1,9.263100624E0
3.652338380E0,-2.447419882E0,-8.764597178E-1,1.099265099E1
3.672338380E0,-5.781709552E-1,-1.147684455E0,9.990888596E0
3.692341505E0,-6.697922349E-1,-1.315805316E0,8.808526039E0
3.712338380E0,-1.459591508E0,-1.291346192E0,8.822422981E0
3.732336818E0,-2.391366959E0,-4.982908070E-1,9.505095482E0
3.752343068E0,-1.120620370E0,-2.235226631E-1,9.001777649E0
3.772336818E0,1.403002162E-2,4.644559622E-1,8.539820671E0
3.792338380E0,-7.459470034E-1,7.449797988E-1,9.221785545E0
3.812338380E0,-1.007489562E0,7.978150249E-1,9.664790154E0
3.832338380E0,-1.352810144E0,7.783932686E-1,9.214258194E0
3.852339943E0,-2.287650108E0,6.479092836E-1,9.743471146E0
3.872336818E0,-1.327115536E0,4.870763719E-1,9.131676674E0
3.892338380E0,-5.780177116E-1,2.468996495E-1,9.712960243E0
3.912336818E0,-1.519015551E0,4.104523361E-1,9.457269669E0
3.932336818E0,-1.742825508E0,5.714288950E-1,9.257620811E0
3.952344630E0,-1.683296084E0,3.244430423E-1,9.057963371E0
3.972338380E0,-1.587346077E0,-4.170603454E-1,8.832171440E0
3.992338380E0,-2.656414509E0,-4.978598654E-1,8.553180695E0
4.012336818E0,-4.546493053E0,-1.037704468E0,9.177721977E0
4.032338380E0,-5.494817257E0,-1.498751044E0,9.086168289E0
4.052341505E0,-4.089229107E0,-1.820732832E0,8.545872688E0
4.072338380E0,-2.612188816E0,-2.092628002E0,9.225893974E0
4.092336818E0,-2.075399399E0,-1.401316643E0,9.249625206E0
4.112338380E0,-2.234652042E0,-5.318862796E-1,9.226677895E0
4.132336818E0,-1.447055459E0,-2.230438143E-1,9.274705887E0
4.152343068E0,-9.107447267E-1,1.089878917E0,9.086100578E0
4.172338380E0,-1.125648260E0,3.630375862E-1,9.461416245E0
4.192338380E0,-1.663376331E0,-1.366801858E-1,9.315006256E0
4.212336818E0,-2.043269157E0,-2.804088891E-1,9.305047035E0
4.232336818E0,-1.949493051E0,-2.548579574E-1,9.117388725E0
4.252338380E0,-1.809470534E0,-6.912539154E-2,9.051260948E0
4.272336818E0,-1.597468734E0,-1.545792371E-1,9.315369606E0
4.292338380E0,-1.772446632E0,-3.815782666E-1,9.513445854E0
4.312336818E0,-1.482384324E0,-8.701486140E-2,9.096529961E0
4.332338380E0,-1.597602844E0,4.654423594E-1,9.285748482E0
4.352338380E0,-1.720291257E0,3.246058524E-1,9.225988388E0
4.372336818E0,-1.651118040E0,-1.157357022E-1,9.026992798E0
4.392338380E0,-1.578698277E0,1.433456391E-1,9.277722359E0
4.412336818E0,-1.449325204E0,3.649625182E-1,9.089692116E0
4.432336818E0,-1.507398963E0,1.176606417E-1,9.263482094E0
4.452336818E0,-1.365614295E0,-8.073247969E-3,9.173306465E0
4.472338380E0,-1.416390538E0,5.121867657E-1,9.340479851E0
4.492338380E0,-1.236652970E0,7.811322212E-1,9.351350784E0
4.512336818E0,-1.292054892E0,6.865612268E-1,9.343497276E0
4.532338380E0,-1.788143039E0,1.124470353E0,9.188715935E0
4.552338380E0,-1.515117764E0,3.955221176E-1,9.156663895E0
4.572336818E0,-1.258765817E0,4.205271602E-1,9.318289757E0
4.592336818E0,-1.422232389E0,4.406575859E-1,9.356942177E0
4.612338380E0,-1.770550370E0,1.212423667E-1,9.180843353E0
4.632336818E0,-1.705926061E0,-2.958179712E-1,9.139988899E0
4.652336818E0,-1.395886540E0,4.518337250E-1,9.354566574E0
4.672344630E0,-1.160881281E0,1.077371597E0,9.508180618E0
4.692338380E0,-1.357933640E0,7.995388508E-1,9.339829445E0
4.712336818E0,-1.484261394E0,5.318192244E-1,9.204441071E0
4.732336818E0,-1.254973412E0,1.232314706E0,9.306203842E0
4.752338380E0,-1.005986094E0,1.713951468E0,9.456463814E0
4.772338380E0,-1.348701596E0,9.895905852E-1,9.319180489E0
4.792338380E0,-1.649978399E0,5.023992658E-1,9.107265472E0
4.812338380E0,-1.484337926E0,8.620083332E-1,9.179292679E0
4.832338380E0,-1.482029915E0,9.520015717E-1,9.292261124E0
4.852338380E0,-1.565080047E0,3.223935962E-1,9.227205276E0
4.872336818E0,-1.660771489E0,-1.717121340E-2,9.248198509E0
4.892338380E0,-1.491348147E0,-9.571060538E-2,9.235891342E0
4.912336818E0,-1.494891644E0,3.124241531E-1,9.243936539E0
4.932338380E0,-1.566861272E0,-2.165890485E-1,9.147411346E0
4.952336818E0,-1.691101193E0,-6.742071509E-1,9.207754135E0
4.972338380E0,-1.558778524E0,-6.593248248E-1,9.211508751E0
4.992338380E0,-1.609094977E0,-5.526583195E-1,9.213892937E0
5.012336818E0,-1.878959894E0,-6.990590096E-1,9.211518288E0
5.032339943E0,-1.739770532E0,4.159206897E-2,9.135412216E0
5.052336818E0,-1.628708363E0,7.536851168E-1,9.296532631E0
5.072343068E0,-1.509448290E0,3.337517083E-1,9.294425011E0
5.092336818E0,-1.875263214E0,2.724122703E-1,8.995704651E0
5.112338380E0,-1.905497193E0,1.852920502E-1,9.134089470E0
5.132341505E0,-1.627673984E0,4.850365222E-1,9.337290764E0
5.152338380E0,-1.493704081E0,5.906686783E-1,9.307641029E0
5.172338380E0,-1.678105474E0,3.813579977E-1,9.337328911E0
5.192338380E0,-1.863531590E0,5.798947811E-1,9.106173515E0
5.212338380E0,-6.106746197E-1,1.935367227E0,9.433299065E0
5.232336818E0,9.528921917E-3,1.964509487E0,8.792906761E0
5.252338380E0,-1.624044418E0,-8.909973502E-1,9.790465355E0
5.272338380E0,-2.450704813E0,-1.042914242E-1,8.875151634E0
5.292338380E0,-1.157232523E0,1.237610728E-1,9.069762230E0
5.312336818E0,-1.493847728E0,5.436274409E-1,9.193379402E0
5.332338380E0,-1.700017214E0,4.578862786E-1,9.530973434E0
5.352338380E0,-1.443042755E0,7.015681267E-1,9.230490685E0
5.372336818E0,-1.531733513E0,5.221179128E-1,9.314133644E0
5.392339943E0,-1.611565828E0,4.582023025E-1,9.217254639E0
5.412338380E0,-1.613078952E0,4.407821000E-1,9.206098557E0
5.432344630E0,-1.606183648E0,6.081750989E-1,9.206864357E0
5.452336818E0,-1.585631847E0,5.694943666E-1,9.226898193E0
5.472338380E0,-1.602649808E0,8.093071580E-1,9.386371613E0
5.492338380E0,-1.539088607E0,5.231330395E-1,9.320053101E0
5.512336818E0,-1.729111552E0,5.513942242E-1,9.252459526E0
5.532339943E0,-1.626007676E0,2.523392737E-1,9.263807297E0
5.552338380E0,-2.001226902E0,4.144746065E-1,9.112196922E0
5.572338380E0,-1.579138756E0,5.759012699E-1,9.339406967E0
5.592344630E0,-1.679111004E0,5.802778602E-1,9.277100563E0
5.612338380E0,-1.696042895E0,3.980025053E-1,9.178343773E0
5.632338380E0,-1.773624539E0,4.773176014E-1,9.161709785E0
5.652338380E0,-1.626429081E0,6.058670878E-1,9.098990440E0
5.672338380E0,-1.606729507E0,7.151575685E-1,9.235565186E0
5.692339943E0,-1.654958367E0,5.649645329E-1,9.347002983E0
5.712338380E0,-1.807229519E0,6.031759977E-1,8.880630493E0
5.732336818E0,-1.665176749E0,5.828540325E-1,9.105704308E0
5.752338380E0,-1.600542903E0,3.989314437E-1,9.493727684E0
5.772338380E0,-1.708243728E0,7.433900237E-1,9.046222687E0
5.792339943E0,-1.809614182E0,6.467313170E-1,9.214352608E0
5.812338380E0,-1.770243883E0,6.344155669E-1,9.245122910E0
5.832338380E0,-1.742193460E0,6.191692352E-1,9.132260323E0
5.852338380E0,-1.812851191E0,6.010690928E-1,9.177520752E0
5.872336818E0,-1.693026185E0,6.798958182E-1,9.232453346E0
5.892346193E0,-1.796838760E0,6.788710952E-1,9.199537277E0
5.912338380E0,-1.809709907E0,6.188724041E-1,9.188649178E0
5.932336818E0,-1.773931026E0,6.458119154E-1,9.156615257E0
5.952336818E0,-1.859969020E0,7.096605301E-1,9.165041924E0
5.972338380E0,-1.803446770E0,7.364276648E-1,9.186934471E0
5.992338380E0,-1.758866668E0,6.865420938E-1,9.182385445E0
6.012338380E0,-1.768558383E0,5.969510674E-1,9.163949966E0
6.032338380E0,-1.744472742E0,6.161717176E-1,9.141511917E0
6.052338380E0,-1.716058373E0,6.772142649E-1,9.173172951E0
6.072338380E0,-1.824697614E0,6.892715096E-1,9.263826370E0
6.092336818E0,-1.850717783E0,7.331907153E-1,9.197153091E0
6.112338380E0,-1.979411006E0,7.137402296E-1,9.219056129E0
6.132338380E0,-1.949062109E0,6.667468548E-1,9.181494713E0
6.152338380E0,-1.904798031E0,6.866570115E-1,9.211146355E0
6.172338380E0,-1.815034628E0,7.184233069E-1,9.233841896E0
6.192338380E0,-1.893344164E0,7.838137150E-1,9.211393356E0
6.212338380E0,-1.908149958E0,7.927871943E-1,9.129923820E0
6.232336818E0,-1.907738090E0,7.085112929E-1,9.159649849E0
6.252338380E0,-1.895039320E0,6.636822820E-1,9.147439957E0
6.272338380E0,-1.860830903E0,7.053509355E-1,9.153540611E0
6.292338380E0,-1.886286139E0,6.818494797E-1,9.176744461E0
6.312336818E0,-1.939571500E0,6.179913282E-1,9.132605553E0
6.332338380E0,-1.902719855E0,5.894907713E-1,9.151396751E0
6.352338380E0,-1.869909763E0,7.501991391E-1,9.172349930E0
6.372338380E0,-1.813483238E0,8.205599189E-1,9.172205925E0
6.392339943E0,-1.786447883E0,7.320414782E-1,9.197143555E0
6.412338380E0,-1.877417922E0,6.725407839E-1,9.248666763E0
6.432336818E0,-1.865839601E0,5.679621100E-1,9.196511269E0
6.452336818E0,-1.847777724E0,5.376418829E-1,9.088016510E0
6.472338380E0,-1.898362398E0,6.140073538E-1,9.124149323E0
6.492338380E0,-1.822590709E0,7.357285619E-1,9.079454422E0
6.512336818E0,-2.023378134E0,6.828837395E-1,9.252133369E0
6.532339943E0,-1.965285182E0,6.554462314E-1,9.078180313E0
6.552338380E0,-1.870168328E0,6.596887112E-1,9.383471489E0
6.572336818E0,-1.930358529E0,7.078505158E-1,9.175807953E0
6.592336818E0,-1.952260733E0,7.432942390E-1,9.072865486E0
6.612338380E0,-1.950096369E0,8.215655088E-1,9.057820320E0
6.632338380E0,-1.800305486E0,8.493191004E-1,9.057619095E0
6.652336818E0,-1.490811825E0,7.727046013E-1,9.233976364E0
6.672338380E0,-1.518105745E0,7.456597090E-1,9.250936508E0
6.692338380E0,-1.676238060E0,5.993835926E-1,9.195487022E0
6.712338380E0,-1.679149389E0,4.496597946E-1,9.217628479E0
6.732336818E0,-2.048938513E0,7.901822925E-1,9.086195946E0
6.752338380E0,-1.894282699E0,6.463291049E-1,9.256969452E0
6.772338380E0,-1.949598312E0,7.953920960E-1,9.233679771E0
6.792338380E0,-1.878298998E0,7.065384984E-1,9.226428986E0
6.812338380E0,-2.041296244E0,6.772909164E-1,9.112869263E0
6.832338380E0,-2.034219027E0,6.035782099E-1,9.091683388E0
6.852338380E0,-1.971816540E0,6.013181210E-1,9.217285156E0
6.872336818E0,-1.970140576E0,8.035802245E-1,9.224074364E0
6.892339943E0,-1.975398302E0,9.279925227E-1,9.197238922E0
6.912338380E0,-1.889580488E0,8.274935484E-1,9.081637383E0
6.932338380E0,-1.933183670E0,7.366192341E-1,9.164017677E0
6.952336818E0,-2.028607130E0,7.097562551E-1,9.227435112E0
6.972338380E0,-2.076720953E0,6.816866398E-1,9.158070564E0
6.992338380E0,-2.026136160E0,7.524304986E-1,9.087326050E0
7.012336818E0,-1.840144992E0,6.175124645E-1,9.106451035E0
7.032338380E0,-1.914422750E0,6.712958217E-1,9.138102531E0
7.052338380E0,-1.901427031E0,6.522188187E-1,9.194952011E0
7.072338380E0,-1.847030759E0,7.333056331E-1,9.229264259E0
7.092336818E0,-2.063849688E0,8.144211769E-1,9.134321213E0
7.112338380E0,-2.065621376E0,6.639121175E-1,9.158309937E0
7.132338380E0,-2.105077744E0,7.774355412E-1,9.195859909E0
7.152336818E0,-2.085588932E0,7.547577024E-1,9.187030792E0
7.172336818E0,-2.121808529E0,7.217273116E-1,9.141454697E0
7.192338380E0,-2.066512108E0,7.783358097E-1,9.101088524E0
7.212336818E0,-1.982753277E0,8.138465881E-1,9.124964714E0
7.232336818E0,-1.953965425E0,7.009552121E-1,9.185135841E0
7.252338380E0,-1.950508118E0,6.034632921E-1,9.176133156E0
7.272336818E0,-1.965304375E0,6.024481654E-1,9.076207161E0
7.292338380E0,-1.911377311E0,6.191501021E-1,9.120242119E0
7.312336818E0,-1.880540013E0,7.064331174E-1,9.139299393E0
7.332338380E0,-1.948113918E0,7.286704779E-1,9.102218628E0
7.352338380E0,-1.976164460E0,7.351731062E-1,9.096692085E0
7.372336818E0,-1.996304393E0,7.398274541E-1,9.158424377E0
7.392339943E0,-2.079804659E0,7.546810508E-1,9.201339722E0
7.412336818E0,-2.135685205E0,7.060405016E-1,9.167791367E0
7.432336818E0,-2.075533390E0,6.214006543E-1,9.125759125E0
7.452336818E0,-1.942779660E0,6.311498284E-1,9.147554398E0
7.472338380E0,-1.915916681E0,7.141903639E-1,9.157850266E0
7.492338380E0,-1.962670684E0,7.622179985E-1,9.153838158E0
7.512336818E0,-2.040156603E0,6.220997572E-1,9.112380028E0
7.532338380E0,-2.071779251E0,4.519582391E-1,9.089873314E0
7.552338380E0,-1.991209626E0,5.330929160E-1,9.160523415E0
7.572336818E0,-2.007748842E0,7.202237248E-1,9.199213028E0
7.592336818E0,-2.012211561E0,8.408340216E-1,9.182662964E0
7.612338380E0,-2.072382689E0,8.162311912E-1,9.165396690E0
7.632338380E0,-2.153296947E0,4.524849355E-1,9.121325493E0
7.652336818E0,-2.145980358E0,2.375143766E-1,9.268941879E0
7.672336818E0,-2.035195827E0,3.936929405E-1,9.292797089E0
7.692338380E0,-2.049810171E0,6.855652928E-1,9.523846626E0
7.712338380E0,-2.127966404E0,8.502384424E-1,9.350852013E0
7.732336818E0,-2.125581741E0,7.253952026E-1,9.219246864E0
7.752338380E0,-2.112499952E0,4.616882503E-1,9.089826584E0
7.772336818E0,-2.078684092E0,2.723931074E-1,9.012810707E0
7.792338380E0,-2.010487795E0,3.792032301E-1,9.064580917E0
7.812338380E0,-1.869047880E0,6.184222698E-1,9.133172035E0
7.832338380E0,-1.844243884E0,6.957550049E-1,9.219879150E0
7.852338380E0,-1.928280354E0,6.874423027E-1,9.286255836E0
7.872338380E0,-1.940586567E0,5.817047954E-1,9.209737778E0
7.892339943E0,-1.950412393E0,4.451586902E-1,9.337012291E0
7.912338380E0,-1.951599956E0,3.229394853E-1,9.353331566E0
7.932338380E0,-1.870264053E0,3.839054406E-1,9.318587303E0
7.952336818E0,-1.809346080E0,4.716768563E-1,9.503631592E0
7.972338380E0,-1.795785308E0,5.543055534E-1,9.340250015E0
7.992338380E0,-1.821068048E0,6.805661917E-1,9.329744339E0
8.012338380E0,-1.701003671E0,5.796840787E-1,9.039968491E0
8.032338380E0,-1.542957544E0,6.106363535E-1,9.155561447E0
8.052338380E0,-1.443866372E0,4.149247110E-1,9.387290955E0
8.072336818E0,-1.491443992E0,4.621096253E-1,9.236112595E0
8.092336818E0,-1.523171902E0,5.402755141E-1,9.160158157E0
8.112338380E0,-1.612849116E0,4.558847249E-1,9.241053581E0
8.132338380E0,-1.668902159E0,4.126741588E-1,9.292011261E0
8.152336818E0,-1.594701052E0,4.987217784E-1,9.268375397E0
8.172336818E0,-1.449200630E0,5.703275800E-1,9.119562149E0
8.192339943E0,-1.416620374E0,4.398722947E-1,9.200181007E0
8.212338380E0,-1.394641638E0,4.682004750E-1,9.313358307E0
8.232336818E0,-1.426484466E0,3.366343081E-1,9.451409340E0
8.252338380E0,-1.584118724E0,1.467645615E-1,9.644371033E0
8.272336818E0,-1.362214565E0,2.379836328E-2,9.792160034E0
8.292339943E0,-9.380673170E-1,-2.458174676E-1,9.853585243E0
8.312336818E0,-1.133529902E0,-5.860047787E-2,9.344914436E0
8.332338380E0,-1.425191641E0,4.951687753E-1,9.166631699E0
8.352338380E0,-8.221688271E-1,1.405913472E0,8.702741623E0
8.372336818E0,-4.854866266E-1,1.315709591E0,9.271201134E0
8.392338380E0,-1.301669955E0,7.086549401E-1,9.062570572E0
8.412338380E0,-1.536579490E0,1.955966949E-1,8.709635735E0
8.432338380E0,-1.119787216E0,-2.851015329E-2,8.789746284E0
8.452336818E0,-5.240811706E-1,2.470145673E-1,8.702577591E0
8.472338380E0,-3.495151401E-1,5.639015436E-1,9.336582184E0
8.492338380E0,-1.282123685E0,4.518624544E-1,9.353581429E0
8.512338380E0,-2.423525810E0,-2.496290356E-1,8.478988647E0
8.532338380E0,-3.202914953E0,-8.367159963E-1,8.898711205E0
8.552338380E0,-3.569390774E0,-9.076705575E-1,9.011976242E0
8.572338380E0,-3.477788448E0,-7.190744877E-1,9.193352699E0
8.592336818E0,-3.067077637E0,-9.624307156E-1,9.264496803E0
8.612339943E0,-2.658224583E0,-1.189305305E0,8.954965591E0
8.632336818E0,-1.933011293E0,-1.286308765E0,9.030535698E0
8.652336818E0,-1.405204773E0,-1.194658756E0,9.408666611E0
8.672336818E0,-1.282717466E0,-9.249854088E-1,9.629756927E0
8.692338380E0,-1.249371052E0,-8.574210405E-1,9.904687881E0
8.712338380E0,-1.016970634E0,-7.719385028E-1,9.611943245E0
8.732336818E0,-6.365798712E-1,-5.244450569E-1,8.854207993E0
8.752338380E0,-6.324522942E-2,-1.683602631E-1,8.984336853E0
8.772338380E0,6.531094909E-1,3.907049596E-1,9.208663940E0
8.792338380E0,3.625778854E-1,6.712383628E-1,9.597186089E0
8.812338380E0,-3.716375530E-1,6.014425755E-1,9.321210861E0
8.832338380E0,-9.027385116E-1,4.066311941E-2,8.652155876E0
8.852338380E0,-1.076030850E0,-6.306614280E-1,8.614663124E0
8.872336818E0,-1.094581127E0,-7.241693735E-1,8.556244850E0
8.892339943E0,-9.682917595E-1,-4.404564798E-1,8.763965607E0
8.912338380E0,-9.516664147E-1,-1.170764565E-1,9.364948273E0
8.932336818E0,-9.610612392E-1,2.040434331E-1,9.698815346E0
8.952336818E0,-9.188275337E-1,2.780051231E-1,9.829222679E0
8.972338380E0,-9.944364429E-1,1.702660471E-1,1.017666912E1
8.992336818E0,-1.140128374E0,1.189918220E-1,9.884805679E0
9.012338380E0,-1.154388189E0,1.638400108E-1,9.478395462E0
9.032338380E0,-1.004587889E0,-7.671021856E-3,9.262323380E0
9.052338380E0,-8.524602652E-1,-1.578736603E-1,9.198617935E0
9.072338380E0,-7.588661313E-1,-3.056054711E-1,8.998099327E0
9.092336818E0,-8.369554281E-1,-3.904080987E-1,9.293966293E0
9.112338380E0,-7.709233165E-1,-2.959424853E-1,9.027422905E0
9.132338380E0,-7.416374683E-1,-1.490438432E-1,8.922232628E0
9.152336818E0,-6.702710986E-1,-2.319310904E-1,9.060185432E0
9.172336818E0,-6.577925086E-1,-1.937962472E-1,9.064784050E0
9.192338380E0,-8.364957571E-1,-1.333665997E-1,9.645433426E0
9.212338380E0,-1.383197308E0,1.167987287E-1,9.891863823E0
9.232336818E0,-1.820943594E0,4.848449826E-1,9.564328194E0
9.252339943E0,-1.929295540E0,3.055001199E-1,9.812894821E0
9.272338380E0,-2.177373171E0,-1.215296704E-2,1.039367962E1
9.292339943E0,-2.237209082E0,2.116474323E-3,9.974445343E0
9.312336818E0,-1.561239719E0,2.331760824E-1,9.077519417E0
9.332338380E0,-6.531094909E-1,2.541492879E-1,8.785398483E0
9.352338380E0,-3.318076134E-1,-1.953668520E-2,9.150762558E0
9.372338380E0,-4.434635937E-1,-4.820006713E-2,9.548000336E0
9.392339943E0,-7.993090153E-1,2.563136518E-1,8.841068268E0
9.412338380E0,-1.075274229E0,2.510176599E-1,8.604972839E0
9.432338380E0,-1.010094523E0,-2.696732879E-1,8.633510590E0
9.452336818E0,-1.122487903E0,-6.778271794E-1,9.299490929E0
9.472338380E0,-1.055775881E0,-6.585395336E-1,9.565745354E0
9.492336818E0,-1.124317050E0,-2.140512019E-1,9.696526527E0
9.512336818E0,-1.163074374E0,-3.198557496E-1,9.647253036E0
9.532338380E0,-1.202674508E0,-5.670810342E-1,9.635991096E0
9.552338380E0,-1.417338610E0,-3.794139028E-1,9.727669716E0
9.572336818E0,-1.575873017E0,4.731229544E-1,9.251990318E0
9.592336818E0,-1.415385008E0,1.096553922E0,8.783368111E0
9.612338380E0,-1.152176023E0,1.024986386E0,8.697129250E0
9.632336818E0,-1.189142466E0,5.673587322E-1,8.695692062E0
9.652338380E0,-1.363823414E0,2.274012715E-1,9.203780174E0
9.672336818E0,-1.672407269E0,2.693955600E-1,9.510315895E0
9.692338380E0,-1.699749112E0,4.959732294E-1,9.179303169E0
9.712338380E0,-1.705207825E0,2.206879258E-1,9.137097359E0
9.732336818E0,-1.550494552E0,-2.399085760E-1,9.130239487E0
9.752338380E0,-1.322671890E0,-5.390018225E-1,9.091905594E0
9.772338380E0,-1.264559865E0,-5.643132925E-1,9.177233696E0
9.792338380E0,-1.251114011E0,-3.338091671E-1,9.149211884E0
9.812338380E0,-1.551615000E0,-8.897811174E-2,9.135669708E0
9.832338380E0,-1.716403127E0,4.808514565E-2,9.220147133E0
9.852338380E0,-1.993029237E0,1.526447237E-1,9.594802856E0
9.872336818E0,-2.245636702E0,2.511038780E-1,9.716379166E0
9.892338380E0,-2.370154142E0,2.858868241E-1,9.716474533E0
9.912338380E0,-2.312540054E0,1.582854539E-1,9.469660759E0
9.932336818E0,-2.186949968E0,1.227267757E-1,9.387386322E0
9.952336818E0,-1.975589871E0,1.081508771E-1,9.213548660E0
9.972338380E0,-1.978644848E0,2.813665867E-1,9.125547409E0
9.992338380E0,-2.046869993E0,4.062098265E-1,9.026791573E0
1.001233682E1,-2.067182302E0,4.060470164E-1,8.917654037E0
1.003233838E1,-2.248088360E0,4.008468091E-1,9.099229813E0
1.005233838E1,-2.224529266E0,3.198940754E-1,9.174839973E0
1.007233838E1,-2.261170149E0,2.420825064E-1,9.212217331E0
1.009233682E1,-2.268965721E0,2.050585747E-1,9.223154068E0
1.011233838E1,-2.092522621E0,1.636197418E-1,9.145248413E0
1.013233838E1,-1.992042780E0,2.006724030E-1,9.212983131E0
1.015233838E1,-1.831056595E0,1.824190021E-1,9.168269157E0
1.017233682E1,-1.792538762E0,2.160719037E-1,9.115683556E0
1.019233994E1,-1.828710318E0,2.110823840E-1,9.123909950E0
1.021233682E1,-1.897002578E0,2.560167611E-1,9.136426926E0
1.023233682E1,-1.969709635E0,3.156994283E-1,9.184329987E0
1.025233994E1,-2.051352024E0,3.661213219E-1,9.203186035E0
1.027233838E1,-2.086307287E0,3.491799235E-1,9.214678764E0
1.029233838E1,-2.069116831E0,2.418430895E-1,9.205724716E0
1.031233682E1,-2.039333105E0,1.094245911E-1,9.208262444E0
1.033233838E1,-1.947721362E0,9.289502050E-4,9.190190315E0
1.035233838E1,-1.898525238E0,3.156515211E-2,9.185699463E0
1.037233682E1,-1.898755074E0,1.240004897E-1,9.195707321E0
1.039233994E1,-1.922285318E0,1.833383888E-1,9.199165344E0
1.041233838E1,-1.929391265E0,2.059109211E-1,9.178450584E0
1.043233838E1,-1.950201750E0,2.105652392E-1,9.201769829E0
1.045233838E1,-2.019872904E0,1.738094538E-1,9.198657036E0
1.047233838E1,-2.057960033E0,1.511890441E-1,9.189625740E0
1.049233838E1,-2.058812380E0,1.147109866E-1,9.160924911E0
1.051233838E1,-2.060804129E0,1.343242824E-1,9.160915375E0
1.053233838E1,-2.064711571E0,1.536885947E-1,9.166593552E0
1.055233838E1,-2.085091114E0,1.552879214E-1,9.183640480E0
1.057233838E1,-2.097023726E0,1.371973306E-1,9.173623085E0
1.059233682E1,-2.081174135E0,1.375612468E-1,9.191445351E0
1.061233838E1,-2.016128540E0,1.468794793E-1,9.183238029E0
1.063233838E1,-1.937129378E0,1.388828456E-1,9.183047295E0
1.065233682E1,-1.906119704E0,1.531139761E-1,9.185575485E0
1.067233682E1,-1.909605622E0,1.687624753E-1,9.172033310E0
1.069233838E1,-1.895786285E0,1.605647355E-1,9.183889389E0
1.071233838E1,-1.920197606E0,1.591473669E-1,9.203665733E0
1.073233682E1,-1.937387943E0,1.488235742E-1,9.206796646E0
1.075233838E1,-1.937138915E0,1.401757151E-1,9.204853058E0
1.077233838E1,-1.930167079E0,1.490151137E-1,9.184865952E0
1.079233838E1,-1.944628000E0,1.396298409E-1,9.175578117E0
1.081233838E1,-1.962172747E0,1.225256622E-1,9.165532112E0
1.083233838E1,-2.011483669E0,1.432594508E-1,9.196693420E0
1.085233838E1,-2.004703283E0,1.439681351E-1,9.170799255E0
1.087233682E1,-2.020495415E0,1.553166509E-1,9.183708191E0
1.089233994E1,-2.008945942E0,1.676419973E-1,9.213261604E0
1.091233682E1,-2.003803015E0,1.497142166E-1,9.190335274E0
1.093233682E1,-2.021740437E0,1.185417101E-1,9.189894676E0
1.095233682E1,-2.001648426E0,1.201218814E-1,9.173355103E0
1.097233838E1,-1.968330622E0,1.393808424E-1,9.193552971E0
1.099233838E1,-1.932178140E0,1.627290994E-1,9.179129601E0
1.101233682E1,-1.913388491E0,1.891898066E-1,9.174446106E0
1.103233994E1,-1.906857133E0,1.891515106E-1,9.205438614E0
1.105233838E1,-1.913139462E0,1.730050147E-1,9.235527039E0
1.107233838E1,-1.942310452E0,1.596740931E-1,9.216135025E0
1.109233682E1,-1.968119860E0,1.262701899E-1,9.174264908E0
1.111233838E1,-1.960515976E0,1.131595448E-1,9.155676842E0
1.113233682E1,-1.962584496E0,1.193844676E-1,9.174685478E0
1.115233682E1,-1.964796782E0,1.361342967E-1,9.199193001E0
1.117233682E1,-1.983078837E0,1.413536668E-1,9.190383911E0
1.119233838E1,-1.966405630E0,1.649413407E-1,9.188630104E0
1.121233838E1,-1.964882970E0,1.500110924E-1,9.198197365E0
1.123233682E1,-1.964748859E0,1.370249391E-1,9.191847801E0
1.125233838E1,-1.980531454E0,1.125179008E-1,9.161815643E0
1.127233838E1,-1.983251214E0,9.952217340E-2,9.184176445E0
1.129233838E1,-1.952921510E0,1.361726075E-1,9.186724663E0
1.131233682E1,-1.977677584E0,1.367567927E-1,9.185738564E0
1.133233838E1,-1.971423864E0,1.201697662E-1,9.188687325E0
1.135233838E1,-1.970427871E0,1.341423243E-1,9.169265747E0
1.137233682E1,-1.962776065E0,1.333570331E-1,9.186886787E0
1.139233994E1,-1.970782280E0,1.085147932E-1,9.183957100E0
1.141233838E1,-1.989696503E0,1.029219404E-1,9.177099228E0
1.143233838E1,-1.998411298E0,9.993397444E-2,9.172752380E0
1.145233682E1,-2.005555630E0,1.025005579E-1,9.176649094E0
1.147233838E1,-2.013791800E0,1.037168130E-1,9.196051598E0
1.149233838E1,-2.036249399E0,1.161187813E-1,9.180297852E0
1.151233682E1,-2.013236284E0,1.026537865E-1,9.176870346E0
1.153233994E1,-2.009213924E0,1.067047790E-1,9.166001320E0
1.155233838E1,-1.999608397E0,9.732908010E-2,9.176774025E0
1.157233682E1,-2.009702444E0,9.177453816E-2,9.173268318E0
1.159233682E1,-2.012987137E0,8.302133530E-2,9.166545868E0
1.161233838E1,-2.021548986E0,9.204268456E-2,9.175683022E0
1.163233838E1,-2.022563934E0,7.256346196E-2,9.171172142E0
1.165233838E1,-2.040386438E0,9.291417897E-2,9.177368164E0
1.167233682E1,-2.036373854E0,9.493488073E-2,9.169170380E0
1.169233994E1,-2.032054663E0,9.028055519E-2,9.192902565E0
1.171233838E1,-2.031269312E0,9.731950611E-2,9.182682991E0
1.173233682E1,-2.070936441E0,5.998911709E-2,9.152333260E0
1.175233838E1,-2.093049288E0,4.539406300E-2,9.163528442E0
1.177233838E1,-2.107596397E0,5.749914423E-2,9.163959503E0
1.179233838E1,-2.079622746E0,8.926541358E-2,9.178113937E0
1.181233838E1,-2.044150114E0,1.113495305E-1,9.173632622E0
1.183233838E1,-2.022583246E0,1.222958192E-1,9.163318634E0
1.185233838E1,-2.034209490E0,7.846277207E-2,9.155427933E0
1.187233682E1,-2.070926905E0,7.968860865E-2,9.158855438E0
1.189233994E1,-2.071223736E0,6.916369498E-2,9.157094955E0
1.191233838E1,-2.095165730E0,6.020938233E-2,9.164927483E0
1.193233682E1,-2.105527878E0,5.713522807E-2,9.157590866E0
1.195233682E1,-2.078205347E0,6.895300746E-2,9.163021088E0
1.197233838E1,-2.113898039E0,7.169197500E-2,9.141311646E0
1.199233838E1,-2.086163521E0,1.023185998E-1,9.144643784E0
1.201233682E1,-2.067881584E0,1.044159234E-1,9.161345482E0
1.203233994E1,-2.077946663E0,8.663178980E-2,9.172895432E0
1.205233838E1,-2.071645260E0,7.020756602E-2,9.163156509E0
1.207233838E1,-2.110996246E0,6.668329984E-2,9.158683777E0
1.209233682E1,-2.099954128E0,7.758171111E-2,9.147717476E0
1.211233838E1,-2.056992769E0,8.940906823E-2,9.155906677E0
1.213233838E1,-2.075801611E0,7.554184645E-2,9.158434868E0
1.215233838E1,-2.105633259E0,7.739017159E-2,9.146472931E0
1.217233682E1,-2.097598314E0,8.403647691E-2,9.154718399E0
1.219233838E1,-2.101285458E0,8.282979578E-2,9.151538849E0
1.221233838E1,-2.074182987E0,1.025867537E-1,9.155292511E0
1.223233682E1,-2.054550648E0,1.040998846E-1,9.159335136E0
1.225233838E1,-2.073579788E0,9.701304883E-2,9.152832031E0
1.227233838E1,-2.084937811E0,8.463023603E-2,9.151511192E0
1.229233838E1,-2.084363222E0,1.008054614E-1,9.155570984E0
1.231233682E1,-2.085962534E0,9.318232536E-2,9.147593498E0
1.233233838E1,-2.076835871E0,1.024047881E-1,9.144824982E0
1.235233838E1,-2.086738348E0,1.104014218E-1,9.147459030E0
1.237233682E1,-2.085991144E0,1.069058925E-1,9.155484200E0
1.239233994E1,-2.081394434E0,1.062738225E-1,9.149816513E0
1.241233838E1,-2.046525240E0,1.071931943E-1,9.169429779E0
1.243233838E1,-2.037647486E0,1.210699901E-1,9.171219826E0
1.245233682E1,-2.041736841E0,1.194706634E-1,9.165003777E0
1.247233838E1,-2.047674417E0,1.235312223E-1,9.176438332E0
1.249233838E1,-2.057921648E0,1.277354509E-1,9.173115730E0
1.251233682E1,-2.065937519E0,1.104971915E-1,9.160992622E0
1.253233838E1,-2.065563917E0,7.514920086E-2,9.180863380E0
1.255233838E1,-2.065535069E0,1.045308411E-1,9.153301239E0
1.257233682E1,-2.036220551E0,1.230715364E-1,9.167387962E0
1.259233682E1,-2.026931047E0,1.775444150E-1,9.171460152E0
1.261233838E1,-2.010966539E0,1.721526682E-1,9.171411514E0
1.263233838E1,-2.001341820E0,1.596836746E-1,9.176333427E0
1.265233682E1,-2.002194166E0,1.284920126E-1,9.170701981E0
1.267233682E1,-1.997290850E0,1.432594508E-1,9.175461769E0
1.269233838E1,-2.032495260E0,1.290474683E-1,9.173833847E0
1.271233838E1,-2.032370806E0,1.232151911E-1,9.191464424E0
1.273233682E1,-2.022535324E0,1.380400807E-1,9.188639641E0
1.275233838E1,-2.017727852E0,1.412483156E-1,9.194242477E0
1.277233838E1,-2.007384777E0,1.426273733E-1,9.167685509E0
1.279233838E1,-1.991966128E0,1.467166692E-1,9.163242340E0
1.281233838E1,-1.993891120E0,1.501739025E-1,9.179972649E0
1.283233838E1,-2.009587526E0,1.283483654E-1,9.170050621E0
1.285233838E1,-2.016904116E0,1.370919794E-1,9.185145378E0
1.287233682E1,-2.027994156E0,1.457781494E-1,9.187415123E0
1.289233994E1,-2.017335176E0,1.755907387E-1,9.171985626E0
1.291233838E1,-1.994178414E0,1.606317759E-1,9.183258057E0
1.293233682E1,-1.983806729E0,1.686379910E-1,9.173172951E0
1.295233682E1,-1.966558933E0,1.739722639E-1,9.190487862E0
1.297233838E1,-1.958341956E0,1.636676192E-1,9.197018623E0
1.299233838E1,-1.976528287E0,1.483447254E-1,9.183841705E0
1.301233682E1,-1.983653545E0,1.427327245E-1,9.177453995E0
1.303233682E1,-2.014912128E0,1.564275622E-1,9.188946724E0
1.305233838E1,-1.985099554E0,1.588792205E-1,9.181102753E0
1.307233838E1,-1.988959074E0,1.541674286E-1,9.170816422E0
1.309233682E1,-1.982916117E0,1.596166342E-1,9.188994408E0
1.311233838E1,-1.991238356E0,1.421581209E-1,9.187758446E0
1.313233682E1,-1.988987803E0,1.593580544E-1,9.181552887E0
1.315233682E1,-1.995729804E0,1.517061889E-1,9.175232887E0
1.317233682E1,-1.956455350E0,1.632653922E-1,9.184761047E0
1.319233838E1,-1.961607695E0,1.659947783E-1,9.180460930E0
1.321233838E1,-1.996189475E0,1.466783732E-1,9.193331718E0
1.323233682E1,-1.994274139E0,1.568872482E-1,9.185258865E0
1.325233994E1,-1.980991125E0,1.492832601E-1,9.177300453E0
1.327233838E1,-1.979698300E0,1.476456225E-1,9.196186066E0
1.329233838E1,-1.944311976E0,1.527883708E-1,9.183716774E0
1.331233682E1,-1.962278008E0,1.648647189E-1,9.195095062E0
1.333233838E1,-1.967650652E0,1.680346429E-1,9.223537445E0
1.335233682E1,-1.981728554E0,1.646444499E-1,9.181992531E0
1.337233682E1,-2.025599957E0,1.255710870E-1,9.195878983E0
1.339233994E1,-2.019786835E0,1.255136281E-1,9.162714958E0
1.341233838E1,-2.007758379E0,1.312980205E-1,9.199643135E0
1.343233838E1,-1.960851073E0,1.763377339E-1,9.181686401E0
1.345233682E1,-1.920398712E0,1.963245273E-1,9.173988342E0
1.347233838E1,-1.923108935E0,1.887013912E-1,9.183506966E0
1.349233838E1,-1.948707700E0,1.783297062E-1,9.196750641E0
1.351233838E1,-1.951465845E0,1.685039103E-1,9.194548607E0
1.353233682E1,-1.991267085E0,1.377719343E-1,9.185871124E0
1.355233838E1,-1.966319442E0,1.498195529E-1,9.177702904E0
1.357233838E1,-1.980148435E0,1.546462625E-1,9.192537308E0
1.359233682E1,-1.976643324E0,1.459409595E-1,9.197517395E0
1.361233994E1,-1.972592235E0,1.713865250E-1,9.166057587E0
1.363233838E1,-1.972592235E0,1.802642196E-1,9.163032532E0
1.365233682E1,-1.967535734E0,1.894675344E-1,9.191397667E0
1.367233682E1,-1.963015437E0,1.779562235E-1,9.187633514E0
1.369233838E1,-1.979047060E0,1.559199840E-1,9.190199852E0
1.371233682E1,-1.986363769E0,1.519073099E-1,9.203110695E0
1.373233682E1,-1.977897882E0,1.639357656E-1,9.174532890E0
1.375233838E1,-1.961425662E0,1.684368700E-1,9.172090530E0
1.377233682E1,-1.966769576E0,1.538609713E-1,9.174561501E0
1.379233838E1,-1.941774130E0,1.738764942E-1,9.185114861E0
1.381233838E1,-1.949263215E0,1.759642363E-1,9.200006485E0
1.383233838E1,-1.947433949E0,1.606605053E-1,9.187404633E0
1.385233682E1,-1.963302732E0,1.705725044E-1,9.178573608E0
1.387233682E1,-1.982015848E0,1.568776667E-1,9.183411598E0
1.389233838E1,-1.972994447E0,1.722771674E-1,9.179532051E0
1.391233838E1,-1.975340843E0,1.717312932E-1,9.185498238E0
1.393233682E1,-1.988834500E0,1.544355750E-1,9.192873001E0
1.395233682E1,-1.957135320E0,1.460079849E-1,9.192663193E0
1.397233838E1,-1.962488770E0,1.823519766E-1,9.184406281E0
1.399233682E1,-1.987110734E0,1.550293416E-1,9.189041138E0
1.401233682E1,-1.956110597E0,1.568968147E-1,9.187911034E0
1.403233682E1,-1.955114603E0,1.754566729E-1,9.194433212E0
1.405233838E1,-1.948362947E0,1.528362483E-1,9.197306633E0
1.407233682E1,-1.957594991E0,1.633515805E-1,9.205389977E0
1.409233682E1,-1.963503838E0,1.479042023E-1,9.188687325E0
1.411233838E1,-1.966731310E0,1.663299799E-1,9.177970886E0
1.413233682E1,-1.965409636E0,1.652477980E-1,9.186398506E0
1.415233682E1,-1.946121931E0,1.518785655E-1,9.193159103E0
1.417233682E1,-1.967487812E0,1.662437767E-1,9.185622215E0
1.419233838E1,-1.950479388E0,1.601241976E-1,9.198417664E0
1.421233682E1,-1.978960872E0,1.487756819E-1,9.191100121E0
1.423233682E1,-2.011378288E0,1.040328443E-1,9.211576462E0
1.425233838E1,-2.033778429E0,1.056609079E-1,9.166191101E0
1.427233682E1,-2.005622625E0,1.383752823E-1,9.194586754E0
1.429233838E1,-1.981766820E0,1.631983519E-1,9.192873001E0
1.431233682E1,-1.945260048E0,1.849281341E-1,9.185096741E0
1.433233838E1,-1.953515291E0,2.122124583E-1,9.182846069E0
1.435233682E1,-1.978673577E0,1.616086066E-1,9.188447952E0
1.437233682E1,-1.996850371E0,1.391605735E-1,9.179253578E0
1.439233838E1,-1.986402035E0,1.414973140E-1,9.175568581E0
1.441233838E1,-1.979612112E0,1.423975378E-1,9.177089691E0
1.443233682E1,-1.996994019E0,1.411046684E-1,9.185057640E0
1.445233682E1,-2.002165556E0,1.295454651E-1,9.181801796E0
1.447233838E1,-1.993881464E0,1.239238754E-1,9.167608261E0
1.449233682E1,-2.012182713E0,1.277162880E-1,9.166430473E0
1.451233682E1,-2.014308929E0,1.642134935E-1,9.167685509E0
1.453233682E1,-1.996179938E0,1.497620940E-1,9.187384605E0
1.455233838E1,-2.007586002E0,1.312884390E-1,9.167762756E0
1.457233682E1,-2.032169580E0,1.102481931E-1,9.168691635E0
1.459233682E1,-2.024843216E0,1.283962429E-1,9.169744492E0
1.461233838E1,-2.039984226E0,1.681495607E-1,9.176352501E0
1.463233838E1,-2.011292219E0,1.461707950E-1,9.174973488E0
1.465233682E1,-2.014596224E0,1.221808940E-1,9.178612709E0
1.467233682E1,-2.001945257E0,1.224777773E-1,9.172551155E0
1.469233838E1,-2.010842085E0,1.245272160E-1,9.170654297E0
1.471233838E1,-2.024058104E0,1.261935830E-1,9.180863380E0
1.473233682E1,-2.021184921E0,1.143949553E-1,9.172780037E0
1.475233838E1,-2.037609100E0,1.132170036E-1,9.170117378E0
1.477233838E1,-2.035339594E0,9.513599426E-2,9.162256241E0
1.479233838E1,-2.057586432E0,9.881348908E-2,9.154087067E0
1.481233838E1,-2.040664196E0,1.278982460E-1,9.166201591E0
1.483233838E1,-2.031776905E0,1.372452080E-1,9.181276321E0
1.485233838E1,-2.016578436E0,1.450598836E-1,9.192355156E0
1.487233682E1,-2.031499147E0,1.231194213E-1,9.168432236E0
1.489233994E1,-2.026567221E0,9.513599426E-2,9.176180840E0
1.491233838E1,-2.050480366E0,9.943597764E-2,9.170865059E0
1.493233838E1,-2.030330896E0,1.040328443E-1,9.167380333E0
1.495233682E1,-2.051112413E0,9.662040323E-2,9.169207573E0
1.497233838E1,-2.053085327E0,1.099417359E-1,9.169170380E0
1.499233838E1,-2.055000782E0,9.474334866E-2,9.159554482E0
1.501233838E1,-2.058553696E0,1.043680385E-1,9.171660423E0
1.503233682E1,-2.073024273E0,9.896671772E-2,9.159468651E0
1.505233838E1,-2.103420973E0,6.365703046E-2,9.137661934E0
1.507233838E1,-2.120515585E0,6.786125153E-2,9.156777382E0
1.509233682E1,-2.120132446E0,7.225700468E-2,9.158855438E0
1.511233838E1,-2.072976351E0,1.177659854E-1,9.171784401E0
1.513233838E1,-2.045634508E0,1.169902682E-1,9.180777550E0
1.515233838E1,-2.033893347E0,1.565233171E-1,9.174438477E0
1.517233682E1,-2.067632437E0,1.078061089E-1,9.165761948E0
1.519233838E1,-2.064203978E0,8.261910826E-2,9.149642944E0
1.521233838E1,-2.071961164E0,6.050626189E-2,9.157035828E0
1.523233682E1,-2.091564894E0,7.478528470E-2,9.168709755E0
1.525233838E1,-2.104426622E0,7.449797541E-2,9.160676003E0
1.527233838E1,-2.103689194E0,8.989748359E-2,9.152515411E0
1.529233838E1,-2.108027458E0,7.973649353E-2,9.144336700E0
1.531233682E1,-2.119912386E0,1.062450930E-1,9.165894508E0
1.533233838E1,-2.106102467E0,1.161762401E-1,9.148110390E0
1.535233838E1,-2.118341684E0,1.063791662E-1,9.163605690E0
1.537233682E1,-2.112097502E0,9.274179488E-2,9.145668983E0
1.539233994E1,-2.099197626E0,8.169015497E-2,9.163797379E0
1.541233838E1,-2.078770399E0,7.377971709E-2,9.184320450E0
1.543233682E1,-2.084305763E0,1.048085690E-1,9.155407906E0
1.545233682E1,-2.071137667E0,9.566272050E-2,9.166526794E0
1.547233838E1,-2.084449291E0,7.152916491E-2,9.141282082E0
1.549233838E1,-2.085158110E0,8.909302950E-2,9.160646439E0
1.551233838E1,-2.089036703E0,9.870814532E-2,9.174935341E0
1.553233682E1,-2.077640295E0,1.106504202E-1,9.178401947E0
1.555233838E1,-2.072430372E0,1.064557806E-1,9.162819862E0
1.557233682E1,-2.069921255E0,1.153143272E-1,9.167150497E0
1.559233682E1,-2.067948580E0,1.189630926E-1,9.174485207E0
1.561233838E1,-2.071798325E0,1.188577414E-1,9.173988342E0
1.563233838E1,-2.066349268E0,1.166455001E-1,9.159937859E0
1.565233838E1,-2.059396505E0,1.178330258E-1,9.157898903E0
1.567233682E1,-2.041420698E0,1.114261448E-1,9.169102669E0
1.569233838E1,-2.044629097E0,1.135713458E-1,9.161009789E0
1.571233838E1,-2.061512947E0,1.112920642E-1,9.152467728E0
1.573233682E1,-2.058496237E0,1.228416935E-1,9.174494743E0
1.575233994E1,-2.039917231E0,1.214817911E-1,9.188026428E0
1.577233838E1,-2.032897472E0,1.357129216E-1,9.166296959E0
1.579233838E1,-2.037647486E0,1.399937570E-1,9.181121826E0
1.581233682E1,-2.042876482E0,1.252550483E-1,9.171036720E0
1.583233838E1,-2.043460608E0,9.580636770E-2,9.161987305E0
1.585233838E1,-2.071185589E0,6.404010206E-2,9.180920601E0
1.587233838E1,-2.072181463E0,9.198522568E-2,9.195525169E0
1.589233994E1,-2.036249399E0,1.166550815E-1,9.192663193E0
1.591233838E1,-2.003017902E0,1.572128534E-1,9.168173790E0
1.593233682E1,-1.983031034E0,1.774965227E-1,9.171142578E0
1.595233682E1,-1.987187386E0,1.706586927E-1,9.187624931E0
1.597233838E1,-2.014222622E0,1.358661503E-1,9.176888466E0
1.599233838E1,-2.029373169E0,1.338645965E-1,9.180136681E0
1.601233682E1,-2.034946918E0,1.188481674E-1,9.172732353E0
1.603233682E1,-2.035531044E0,1.344296336E-1,9.191226006E0
1.605233838E1,-2.007480621E0,1.355213821E-1,9.178747177E0
1.607233838E1,-2.035674810E0,9.507853538E-2,9.175672531E0
1.609233682E1,-2.017229795E0,1.586398035E-1,9.172684669E0
1.611233838E1,-1.994140148E0,1.603444666E-1,9.188114166E0
1.613233682E1,-1.989763498E0,1.657936722E-1,9.191694260E0
1.615233838E1,-1.993096232E0,1.365652531E-1,9.176218987E0
1.617233682E1,-2.000116110E0,1.410855055E-1,9.182662964E0
1.619233838E1,-2.001753569E0,1.386530101E-1,9.196387291E0
1.621233838E1,-1.993613362E0,1.492353678E-1,9.181063652E0
1.623233682E1,-1.990615845E0,1.415547729E-1,9.180068016E0
1.625233994E1,-1.996352315E0,1.512465030E-1,9.191676140E0
1.627233838E1,-1.969431877E0,1.577587277E-1,9.194903374E0
1.629233838E1,-1.975350380E0,1.469082087E-1,9.179091454E0
1.631233682E1,-1.975886703E0,1.413728148E-1,9.184551239E0
1.633233838E1,-1.982035041E0,1.467741281E-1,9.185555458E0
1.635233838E1,-1.992694020E0,1.342093647E-1,9.192365646E0
1.637233838E1,-1.982322335E0,1.324472278E-1,9.180958748E0
1.639233994E1,-1.982657552E0,1.627865583E-1,9.194414139E0
1.641233838E1,-1.982647896E0,1.556422561E-1,9.194347382E0
1.643233838E1,-1.971203685E0,1.584961414E-1,9.183477402E0
1.645233682E1,-1.951121092E0,1.418516636E-1,9.160550117E0
1.647233838E1,-1.951801062E0,1.498865932E-1,9.183132172E0
1.649233682E1,-1.943382978E0,1.421485394E-1,9.198666573E0
1.651233682E1,-1.954664469E0,1.569925845E-1,9.211565971E0
1.653233682E1,-1.982944846E0,1.583812237E-1,9.196617126E0
1.655233838E1,-1.971730351E0,1.359906495E-1,9.205504417E0
1.657233682E1,-1.961741805E0,1.260403544E-1,9.186991692E0
1.659233682E1,-1.946256042E0,1.184172109E-1,9.197671890E0
1.661233838E1,-1.975762248E0,1.436042190E-1,9.192249298E0
1.663233838E1,-1.952950239E0,1.573469341E-1,9.182740211E0
1.665233682E1,-1.962862253E0,1.496567577E-1,9.195515633E0
1.667233682E1,-1.952069163E0,1.572224349E-1,9.212017059E0
1.669233838E1,-1.966846228E0,1.295646131E-1,9.185029030E0
1.671233838E1,-2.000441551E0,1.231290027E-1,9.189089775E0
1.673233682E1,-2.016032696E0,1.204283386E-1,9.184741974E0
1.675233838E1,-1.990366817E0,1.305893362E-1,9.196578026E0
1.677233682E1,-1.959213495E0,1.709555686E-1,9.201836586E0
1.679233838E1,-1.913924813E0,1.886056215E-1,9.189127922E0
1.681233682E1,-1.915495396E0,2.074048966E-1,9.200361252E0
1.683233838E1,-1.949540854E0,1.651137173E-1,9.183258057E0
1.685233682E1,-1.966424823E0,1.446097791E-1,9.174407959E0
1.687233682E1,-1.978261709E0,1.442745924E-1,9.178401947E0
1.689233838E1,-1.972304940E0,1.497333646E-1,9.186867714E0
1.691233838E1,-1.950977445E0,1.401852965E-1,9.187816620E0
1.693233682E1,-1.954118609E0,1.325046867E-1,9.185595512E0
1.695233682E1,-1.953151345E0,1.442650110E-1,9.179943085E0
1.697233838E1,-1.946562529E0,1.671440005E-1,9.184425354E0
1.699233838E1,-1.948640704E0,1.725548953E-1,9.178641319E0
1.701233682E1,-1.941553831E0,1.778700203E-1,9.197221756E0
1.703233682E1,-1.949100375E0,1.627290994E-1,9.186571121E0
1.705233838E1,-1.949761152E0,1.515912712E-1,9.194414139E0
1.707233838E1,-1.967210054E0,1.455004215E-1,9.195285797E0
1.709233838E1,-1.969355345E0,1.569542736E-1,9.187260628E0
1.711233838E1,-1.946840286E0,1.652477980E-1,9.189894676E0
1.713233838E1,-1.936669707E0,1.671440005E-1,9.202755928E0
1.715233838E1,-1.921682000E0,1.605168581E-1,9.177424431E0
1.717233682E1,-1.964030623E0,1.523765624E-1,9.193130493E0
1.719233838E1,-1.939839602E0,1.506623179E-1,9.162609100E0
1.721233838E1,-1.956771374E0,1.534683257E-1,9.206529617E0
1.723233682E1,-1.949990988E0,1.434892863E-1,9.180460930E0
1.725233838E1,-1.960391402E0,1.591473669E-1,9.169054985E0
1.727233838E1,-1.941515565E0,1.696626991E-1,9.181907654E0
1.729233838E1,-1.920973301E0,1.779466420E-1,9.196532249E0
1.731233682E1,-1.916989326E0,1.837406009E-1,9.194519043E0
1.733233838E1,-1.945078135E0,1.536694318E-1,9.193092346E0
1.735233838E1,-1.940136433E0,1.505569667E-1,9.192029953E0
1.737233682E1,-1.930071235E0,1.525489539E-1,9.187528610E0
1.739233994E1,-1.932254791E0,1.632079333E-1,9.196732521E0
1.741233838E1,-1.899415851E0,1.519647688E-1,9.213625908E0
1.743233682E1,-1.942061424E0,1.482010782E-1,9.193255424E0
1.745233682E1,-1.944465160E0,1.368142515E-1,9.188908577E0
1.747233994E1,-1.955622196E0,1.293060333E-1,9.179311752E0
1.749233838E1,-1.933480620E0,1.696722806E-1,9.203330040E0
1.751233682E1,-1.924526334E0,1.707161516E-1,9.194634438E0
1.753233682E1,-1.921739459E0,1.697776169E-1,9.193571091E0
1.755233838E1,-1.956187248E0,1.593963653E-1,9.187748909E0
1.757233682E1,-1.959347606E0,1.322365403E-1,9.185230255E0
1.759233838E1,-1.976844430E0,1.303403378E-1,9.185067177E0
1.761233838E1,-1.951389194E0,1.425699145E-1,9.194577217E0
1.763233838E1,-1.931325793E0,1.588504910E-1,9.200889587E0
1.765233838E1,-1.901924968E0,1.909423620E-1,9.201606750E0
1.767233682E1,-1.887693882E0,1.994753033E-1,9.184282303E0
1.769233838E1,-1.905889869E0,1.805132180E-1,9.198591232E0
1.771233838E1,-1.914049268E0,1.554698795E-1,9.207238197E0
1.773233682E1,-1.924928546E0,1.432115585E-1,9.195611000E0
1.775233838E1,-1.940031171E0,1.433456391E-1,9.175365448E0
1.777233838E1,-1.956043601E0,1.549431533E-1,9.189750671E0
1.779233838E1,-1.937617779E0,1.557092965E-1,9.209019661E0
1.781233682E1,-1.952452302E0,1.521179974E-1,9.187174797E0
1.783233838E1,-1.953093886E0,1.782147884E-1,9.192203522E0
1.785233838E1,-1.911473155E0,1.991113871E-1,9.194204330E0
1.787233838E1,-1.906598449E0,1.823328137E-1,9.191436768E0
1.789233838E1,-1.908015847E0,1.662246287E-1,9.202296257E0
1.791233838E1,-1.942080617E0,1.470901668E-1,9.196798325E0
1.793233682E1,-1.930052161E0,1.529128700E-1,9.192873001E0
1.795233682E1,-1.934323311E0,1.601050496E-1,9.189703941E0
1.797233838E1,-1.928452730E0,1.646157205E-1,9.191943169E0
1.799233838E1,-1.914164186E0,1.782147884E-1,9.201339722E0
1.801233682E1,-1.908351064E0,1.588888019E-1,9.194634438E0
1.803233682E1,-1.916136980E0,1.681495607E-1,9.196578026E0
1.805233838E1,-1.926345825E0,1.746618003E-1,9.185747147E0
1.807233838E1,-1.933346510E0,1.655159444E-1,9.193829536E0
1.809233838E1,-1.939686418E0,1.560253352E-1,9.195017815E0
1.811233838E1,-1.919259071E0,1.601433605E-1,9.195402145E0
1.813233682E1,-1.908954382E0,1.567052901E-1,9.193887711E0
1.815233682E1,-1.930272341E0,1.607179642E-1,9.198857307E0
1.817233682E1,-1.917065978E0,1.462282538E-1,9.183793068E0
1.819233838E1,-1.932570815E0,1.602678597E-1,9.186025620E0
1.821233682E1,-1.894847751E0,1.524052918E-1,9.193743706E0
1.823233682E1,-1.918483377E0,1.639932394E-1,9.215051651E0
1.825233838E1,-1.917439461E0,1.630068272E-1,9.190918922E0
1.827233838E1,-1.902308106E0,1.311352104E-1,9.205704689E0
1.829233838E1,-1.917228818E0,1.334623694E-1,9.193140030E0
1.831233682E1,-1.902461290E0,1.600475907E-1,9.184455872E0
1.833233838E1,-1.917056322E0,1.673738509E-1,9.189970016E0
1.835233682E1,-1.921815991E0,1.683027893E-1,9.188467026E0
1.837233682E1,-1.904242635E0,1.529703289E-1,9.227875710E0
1.839233838E1,-1.877657413E0,1.564275622E-1,9.207936287E0
1.841233838E1,-1.913407564E0,1.866040677E-1,9.213176727E0
1.843233682E1,-1.888029099E0,1.796225756E-1,9.209631920E0
1.845233682E1,-1.913196921E0,1.365173757E-1,9.200169563E0
1.847233838E1,-1.950536847E0,1.102386191E-1,9.198552132E0
1.849233682E1,-1.940155625E0,1.326483488E-1,9.182634354E0
1.851233682E1,-1.925867081E0,1.545121968E-1,9.204010963E0
1.853233682E1,-1.896696091E0,2.035071403E-1,9.199537277E0
1.855233838E1,-1.855276346E0,2.096075565E-1,9.209334373E0
1.857233682E1,-1.879764318E0,1.964873374E-1,9.192863464E0
1.859233682E1,-1.893315434E0,1.641081572E-1,9.202709198E0
1.861233838E1,-1.911339045E0,1.660522521E-1,9.193102837E0
1.863233682E1,-1.915265560E0,1.522712260E-1,9.188284874E0
1.865233682E1,-1.945116401E0,1.524531841E-1,9.199834824E0
1.867233682E1,-1.921251059E0,1.508825868E-1,9.206587791E0
1.869233838E1,-1.925732970E0,1.372164786E-1,9.190834045E0
1.871233682E1,-1.929027438E0,1.563317925E-1,9.185029030E0
1.873233682E1,-1.911530614E0,1.692221761E-1,9.197507858E0
1.875233838E1,-1.913608670E0,1.821987480E-1,9.198436737E0
1.877233682E1,-1.922151208E0,1.501164436E-1,9.194042206E0
1.879233838E1,-1.911070824E0,1.721622497E-1,9.217294693E0
1.881233682E1,-1.934783101E0,1.578257680E-1,9.197221756E0
1.883233838E1,-1.936602592E0,1.484404951E-1,9.189817429E0
1.885233682E1,-1.922888637E0,1.316140443E-1,9.201731682E0
1.887233682E1,-1.916970134E0,1.452035457E-1,9.190335274E0
1.889233682E1,-1.894282699E0,1.762515455E-1,9.207284927E0
1.891233838E1,-1.905286431E0,1.462378353E-1,9.195257187E0
1.893233682E1,-1.937378407E0,1.361342967E-1,9.189300537E0
1.895233682E1,-1.954156876E0,1.267011464E-1,9.193274498E0
1.897233838E1,-1.936133385E0,1.162145436E-1,9.196396828E0
1.899233838E1,-1.955698848E0,1.420814991E-1,9.181494713E0
1.901233682E1,-1.949741960E0,1.483830363E-1,9.199251175E0
1.903233682E1,-1.941103697E0,1.375516653E-1,9.193494797E0
1.905233838E1,-1.960353136E0,1.476360410E-1,9.185268402E0
1.907233838E1,-1.954970956E0,1.300530285E-1,9.187117577E0
1.909233682E1,-1.972352862E0,1.444661319E-1,9.191004753E0
1.911233838E1,-1.969135046E0,1.299285293E-1,9.197852135E0
1.913233838E1,-1.957250237E0,1.326291859E-1,9.204115868E0
1.915233682E1,-1.960084915E0,1.120486334E-1,9.195323944E0
1.917233682E1,-1.964768052E0,1.187332422E-1,9.193388939E0
1.919233838E1,-1.977916956E0,1.229757741E-1,9.190843582E0
1.921233838E1,-1.970456600E0,1.210508347E-1,9.187424660E0
1.923233682E1,-1.963685870E0,1.136000752E-1,9.198274612E0
1.925233838E1,-1.968847752E0,1.347552389E-1,9.190229416E0
1.927233838E1,-1.998909354E0,1.282430142E-1,9.193763733E0
1.929233838E1,-1.985434771E0,1.280131638E-1,9.204192162E0
1.931233682E1,-2.001993179E0,1.139927283E-1,9.176831245E0
1.933233838E1,-2.038126469E0,8.355763555E-2,9.182176590E0
1.935233682E1,-2.048153162E0,8.255206794E-2,9.182538986E0
1.937233682E1,-2.023560047E0,9.775046259E-2,9.191349983E0
1.939233682E1,-1.980081320E0,1.326387674E-1,9.192566872E0
1.941233838E1,-1.948631048E0,1.357703805E-1,9.191339493E0
1.943233682E1,-1.983682275E0,1.277450174E-1,9.185411453E0
1.945233682E1,-2.018053293E0,1.072123498E-1,9.188888550E0
1.947233838E1,-2.038365841E0,7.756255567E-2,9.184942245E0
1.949233838E1,-2.028913498E0,8.285853267E-2,9.179473877E0
1.951233682E1,-2.050374985E0,9.763554484E-2,9.180422783E0
1.953233682E1,-2.043690443E0,9.424535185E-2,9.175997734E0
1.955233838E1,-2.046822071E0,8.509950340E-2,9.156748772E0
1.957233682E1,-2.051227331E0,9.562440962E-2,9.172473907E0
1.959233682E1,-2.040625811E0,1.171530709E-1,9.174963951E0
1.961233838E1,-2.030943871E0,1.211944818E-1,9.181026459E0
1.963233682E1,-2.039448023E0,1.061684787E-1,9.169858932E0
1.965233682E1,-2.039486170E0,8.004295081E-2,9.179647446E0
1.967233682E1,-2.065315008E0,8.508992195E-2,9.175892830E0
1.969233838E1,-2.058218479E0,1.015428752E-1,9.166756630E0
1.971233838E1,-2.053832293E0,1.047606841E-1,9.165368080E0
1.973233682E1,-2.043393612E0,1.009682715E-1,9.176544189E0
1.975233838E1,-2.039677858E0,9.310571104E-2,9.155800819E0
1.977233838E1,-2.052989483E0,8.124005049E-2,9.150686264E0
1.979233994E1,-2.076069593E0,9.087431431E-2,9.156308174E0
1.981233682E1,-2.048565149E0,7.786901295E-2,9.156106949E0
1.983233838E1,-2.083855629E0,8.781931549E-2,9.166593552E0
1.985233682E1,-2.109741688E0,7.779239863E-2,9.146233559E0
1.987233838E1,-2.093135595E0,8.996451646E-2,9.159852982E0
1.989233838E1,-2.066148043E0,9.900502115E-2,9.144748688E0
1.991233994E1,-2.061292648E0,1.058907509E-1,9.156969070E0
1.993233838E1,-2.088921785E0,8.916964382E-2,9.150821686E0
1.995233838E1,-2.087427855E0,7.957368344E-2,9.154469490E0
1.997233994E1,-2.086546659E0,8.031109720E-2,9.159468651E0
1.999233838E1,-2.067814350E0,9.699389338E-2,9.168231010E0
2.001233838E1,-2.054244041E0,1.043967679E-1,9.162609100E0
2.003233838E1,-2.066416264E0,1.000584736E-1,9.148904800E0
2.005233994E1,-2.037005901E0,8.634448797E-2,9.144595146E0
2.007233838E1,-2.056887388E0,1.039466560E-1,9.172120094E0
2.009233838E1,-2.045347214E0,1.158410534E-1,9.175730705E0
2.011233994E1,-2.046371937E0,1.101907343E-1,9.165894508E0
2.013233838E1,-2.075102329E0,1.011598036E-1,9.139836311E0
2.015233838E1,-2.077994585E0,7.428728789E-2,9.157820702E0
2.017233838E1,-2.060162544E0,8.719681948E-2,9.137241364E0
2.019233994E1,-2.059597492E0,1.271129549E-1,9.159584045E0
2.021233838E1,-2.017124414E0,1.444756985E-1,9.149729729E0
2.023233838E1,-1.998660326E0,1.634665132E-1,9.152257919E0
2.025234150E1,-1.986583948E0,1.428189129E-1,9.152707100E0
2.027233838E1,-2.017239332E0,1.058620214E-1,9.157114029E0
2.029233994E1,-2.004377604E0,1.024143696E-1,9.155493736E0
2.031233682E1,-2.013102055E0,8.935160190E-2,9.142594337E0
2.033233994E1,-2.024125099E0,1.185704395E-1,9.154871941E0
2.035233682E1,-2.022947073E0,1.291336566E-1,9.161212921E0
2.037233682E1,-2.015027046E0,1.359715015E-1,9.139224052E0
2.039233682E1,-2.022679090E0,1.262127310E-1,9.146109581E0
2.041233838E1,-2.017593622E0,1.657266319E-1,9.152381897E0
2.043233838E1,-2.006503820E0,1.463431716E-1,9.161355019E0
2.045233682E1,-1.978596926E0,1.399650276E-1,9.142279625E0
2.047233838E1,-1.984352589E0,1.481819302E-1,9.162734032E0
2.049233838E1,-1.989562392E0,1.390743852E-1,9.175165176E0
2.051233682E1,-1.975235462E0,1.347456723E-1,9.157878876E0
2.053233682E1,-1.975312114E0,1.297369897E-1,9.153282166E0
2.055233838E1,-1.963235736E0,1.290474683E-1,9.154240608E0
2.057233838E1,-1.975723863E0,1.404151320E-1,9.160052299E0
2.059233682E1,-1.962728143E0,1.369196028E-1,9.144461632E0
2.061233838E1,-1.964796782E0,1.466304809E-1,9.154162407E0
2.063233838E1,-1.954674125E0,1.454812735E-1,9.166976929E0
2.065233682E1,-1.973549962E0,1.522807926E-1,9.171622276E0
2.067233682E1,-1.966568470E0,1.465059817E-1,9.154489517E0
2.069233838E1,-1.972276211E0,1.392850727E-1,9.152086258E0
2.071233838E1,-1.960065842E0,1.407024413E-1,9.147171974E0
2.073233682E1,-1.943641543E0,1.529415995E-1,9.151749611E0
2.075233838E1,-1.963676214E0,1.648072600E-1,9.155964851E0
2.077233838E1,-1.930157423E0,1.576533914E-1,9.158760071E0
2.079233838E1,-1.942425370E0,1.544643044E-1,9.154296875E0
2.081233682E1,-1.952145815E0,1.451460719E-1,9.152630806E0
2.083233838E1,-1.953591943E0,1.399171352E-1,9.157265663E0
2.085233838E1,-1.952854514E0,1.689157188E-1,9.160349846E0
2.087233682E1,-1.939715147E0,1.545026153E-1,9.160303116E0
2.089233682E1,-1.910553694E0,1.538609713E-1,9.165426254E0
2.091233838E1,-1.912277579E0,1.611010432E-1,9.161643028E0
2.093233682E1,-1.911300659E0,1.584865749E-1,9.173756599E0
2.095233682E1,-1.968637109E0,1.621736437E-1,9.162599564E0
2.097233838E1,-1.963321924E0,1.241632923E-1,9.158826828E0
2.099233838E1,-1.964835048E0,1.240100637E-1,9.152937889E0
2.101233682E1,-1.955727577E0,1.447821558E-1,9.162343025E0
2.103233682E1,-1.925799966E0,1.597890109E-1,9.177463531E0
2.105233838E1,-1.918943048E0,1.968225241E-1,9.143350601E0
2.107233838E1,-1.895096779E0,2.068685889E-1,9.168709755E0
2.109233682E1,-1.903284907E0,1.797662377E-1,9.164716721E0
2.111233838E1,-1.913407564E0,1.609956920E-1,9.170117378E0
2.113233838E1,-1.938527584E0,1.431157887E-1,9.171315193E0
2.115233682E1,-1.948564053E0,1.421581209E-1,9.157936096E0
2.117233682E1,-1.931325793E0,1.394478828E-1,9.169399261E0
2.119233838E1,-1.942300797E0,1.558912545E-1,9.175902367E0
2.121233682E1,-1.942530632E0,1.688678265E-1,9.154450417E0
2.123233838E1,-1.935261846E0,1.726219356E-1,9.162457466E0
2.125233838E1,-1.913599133E0,1.847174466E-1,9.173460007E0
2.127233838E1,-1.916405201E0,1.845546365E-1,9.179541588E0
2.129233838E1,-1.917678833E0,1.674983501E-1,9.175873756E0
2.131233682E1,-1.932657003E0,1.536023915E-1,9.179933548E0
2.133233838E1,-1.912718058E0,1.511698961E-1,9.180700302E0
2.135233682E1,-1.923664331E0,1.676898748E-1,9.161431313E0
2.137233682E1,-1.903696775E0,1.653914452E-1,9.172818184E0
2.139233682E1,-1.907039046E0,1.870733351E-1,9.156690598E0
2.141233838E1,-1.909883380E0,1.707448810E-1,9.178163528E0
2.143233838E1,-1.909557700E0,1.730816215E-1,9.173125267E0
2.145233682E1,-1.899846911E0,1.823136657E-1,9.176812172E0
2.147233838E1,-1.923405766E0,1.697297394E-1,9.171479225E0
2.149233838E1,-1.923587799E0,1.570213139E-1,9.177837372E0
2.151233682E1,-1.915619850E0,1.534683257E-1,9.161499023E0
2.153233682E1,-1.916721225E0,1.376953274E-1,9.169591904E0
2.155233838E1,-1.888297200E0,1.608807743E-1,9.174551964E0
2.157233838E1,-1.914250374E0,1.648264080E-1,9.175721169E0
2.159233682E1,-1.912239194E0,1.631696224E-1,9.169074059E0
2.161233838E1,-1.917315006E0,1.457781494E-1,9.186005592E0
2.163233682E1,-1.901695132E0,1.509400457E-1,9.174543381E0
2.165233682E1,-1.914374828E0,1.555752158E-1,9.181830406E0
2.167233682E1,-1.907173157E0,1.599996984E-1,9.172101021E0
2.169233838E1,-1.902135730E0,1.562264413E-1,9.186179161E0
2.171233838E1,-1.909567356E0,1.660043597E-1,9.178401947E0
2.173233682E1,-1.925790429E0,1.547037363E-1,9.180345535E0
2.175233838E1,-1.912248850E0,1.559104025E-1,9.174455643E0
2.177233838E1,-1.911511421E0,1.497812569E-1,9.196013451E0
2.179233838E1,-1.898984909E0,1.567244381E-1,9.180690765E0
2.181233682E1,-1.912651062E0,1.602008194E-1,9.175481796E0
2.183233838E1,-1.905746222E0,1.659660488E-1,9.190095901E0
2.185233682E1,-1.950259209E0,1.682070345E-1,9.185564995E0
2.187233682E1,-1.953831315E0,1.184363663E-1,9.184521675E0
2.189233682E1,-1.954903960E0,1.119049862E-1,9.167368889E0
2.191233838E1,-1.956905484E0,1.299572587E-1,9.172665596E0
2.193233682E1,-1.921873450E0,1.486033052E-1,9.191665649E0
2.195233682E1,-1.882235050E0,1.926566213E-1,9.163538933E0
2.197233838E1,-1.879017353E0,1.968033761E-1,9.175624847E0
2.199233838E1,-1.913034081E0,1.556039453E-1,9.170443535E0
2.201233682E1,-1.941726208E0,1.290091574E-1,9.172291756E0
2.203233682E1,-1.967257977E0,1.240196452E-1,9.176218987E0
2.205233838E1,-1.978165984E0,1.515338123E-1,9.174638748E0
2.207233838E1,-1.980799556E0,1.258296520E-1,9.168508530E0
2.209233682E1,-1.967162251E0,1.240292192E-1,9.173325539E0
2.211233838E1,-1.951925516E0,1.143949553E-1,9.169763565E0
2.213233838E1,-1.955497622E0,1.400129050E-1,9.167791367E0
2.215233682E1,-1.938316941E0,1.460750252E-1,9.171871185E0
2.217233682E1,-1.949952722E0,1.544164270E-1,9.185948372E0
2.219233838E1,-1.976997614E0,1.224298924E-1,9.179886818E0
2.221233838E1,-1.974766254E0,1.142225713E-1,9.175595284E0
2.223233682E1,-2.001054525E0,1.166838109E-1,9.181494713E0
2.225233838E1,-1.978510737E0,1.432881802E-1,9.183190346E0
2.227233838E1,-1.964586020E0,1.459792554E-1,9.183621407E0
2.229233838E1,-1.968876481E0,1.390456557E-1,9.175118446E0
2.231233682E1,-1.966558933E0,1.085147932E-1,9.165108681E0
2.233233838E1,-1.977457285E0,1.350904256E-1,9.165951729E0
2.235233682E1,-1.994887114E0,1.369866431E-1,9.169180870E0
2.237233682E1,-1.998449683E0,1.317002475E-1,9.179904938E0
2.239233682E1,-2.000968456E0,1.181203276E-1,9.184578896E0
2.241233838E1,-2.008687258E0,1.161475107E-1,9.177061081E0
2.243233682E1,-2.001360893E0,1.041860804E-1,9.174993515E0
2.245233682E1,-2.022286415E0,1.130446196E-1,9.170185089E0
2.247233838E1,-2.010966539E0,1.005468890E-1,9.184128761E0
2.249233838E1,-2.028137684E0,1.191258952E-1,9.171699524E0
2.251233682E1,-2.032907009E0,1.016386449E-1,9.178143501E0
2.253233682E1,-2.045816422E0,9.860280156E-2,9.170098305E0
2.255233838E1,-2.034123182E0,1.196909249E-1,9.182375908E0
2.257233838E1,-2.042790174E0,9.815268964E-2,9.156308174E0
2.259233682E1,-2.038116693E0,9.599790722E-2,9.145103455E0
2.261233838E1,-2.033347607E0,9.855491668E-2,9.171381950E0
2.263233838E1,-2.031125784E0,9.459012002E-2,9.168203354E0
2.265233838E1,-2.041171789E0,8.725428581E-2,9.164802551E0
2.267233682E1,-2.048632145E0,8.847054094E-2,9.176486015E0
2.269233838E1,-2.029880762E0,1.131882742E-1,9.182425499E0
2.271233682E1,-2.071051359E0,9.835380316E-2,9.167455673E0
2.273233682E1,-2.093623877E0,7.082048059E-2,9.145840645E0
2.275233838E1,-2.132457972E0,5.981673300E-2,9.163232803E0
2.277233838E1,-2.114539623E0,7.210377604E-2,9.159574509E0
2.279233838E1,-2.088519573E0,8.852799982E-2,9.161968231E0
2.281233682E1,-2.038250923E0,1.262318790E-1,9.144902229E0
2.283233838E1,-2.037072897E0,1.334528029E-1,9.161039352E0
2.285233838E1,-2.064615726E0,1.033145860E-1,9.154105186E0
2.287233682E1,-2.085253716E0,9.539456666E-2,9.152555466E0
2.289233682E1,-2.109215021E0,7.900865376E-2,9.141551018E0
2.291233838E1,-2.081327438E0,6.859866530E-2,9.142765999E0
2.293233682E1,-2.066301346E0,9.178411216E-2,9.154641151E0
2.295233682E1,-2.080168486E0,1.013034582E-1,9.165147781E0
2.297233994E1,-2.062729120E0,1.033433154E-1,9.141282082E0
2.299233838E1,-2.076146364E0,1.196047366E-1,9.163156509E0
2.301233682E1,-2.065046787E0,1.235695332E-1,9.160829544E0
2.303233682E1,-2.039735317E0,1.088978648E-1,9.178909302E0
2.305233838E1,-2.037015438E0,1.085818335E-1,9.173028946E0
2.307233682E1,-2.041813374E0,1.066473126E-1,9.176984787E0
2.309233682E1,-2.059272051E0,1.093192473E-1,9.181907654E0
2.311233838E1,-2.041095257E0,1.202368066E-1,9.165837288E0
2.313233682E1,-2.053353548E0,9.331639856E-2,9.176964760E0
2.315233682E1,-2.061436415E0,1.139161140E-1,9.164601326E0
2.317233682E1,-2.041526079E0,1.164252385E-1,9.161566734E0
2.319233838E1,-2.036211014E0,1.239909157E-1,9.165788651E0
2.321233682E1,-2.012929678E0,1.204570681E-1,9.173144341E0
2.323233682E1,-2.035540581E0,1.216924787E-1,9.165311813E0
2.325233838E1,-2.033778429E0,1.190875843E-1,9.187155724E0
2.327233838E1,-2.024383545E0,1.185704395E-1,9.185277939E0
2.329233994E1,-2.017593622E0,1.205624193E-1,9.174054146E0
2.331233682E1,-2.001293898E0,1.216733232E-1,9.176218987E0
2.333233838E1,-2.016051769E0,1.159559712E-1,9.161230087E0
2.335233682E1,-1.999857426E0,1.255902350E-1,9.168977737E0
2.337233682E1,-2.006867647E0,1.228225455E-1,9.174130440E0
2.339233682E1,-1.997578144E0,1.348797381E-1,9.190277100E0
2.341233838E1,-2.017057419E0,1.154675558E-1,9.169984818E0
2.343233838E1,-2.038375378E0,1.470614374E-1,9.177644730E0
2.345233838E1,-2.008218050E0,1.354447752E-1,9.171612740E0
2.347233838E1,-1.978702307E0,1.279365569E-1,9.185316086E0
2.349233838E1,-1.948736429E0,1.636005789E-1,9.193763733E0
2.351233838E1,-1.953285456E0,1.391126961E-1,9.195975304E0
2.353233682E1,-1.965773582E0,1.534491628E-1,9.200006485E0
2.355233838E1,-1.987474680E0,1.372835189E-1,9.176352501E0
2.357233838E1,-1.993412256E0,1.183405966E-1,9.193226814E0
2.359233682E1,-2.019202709E0,1.238376871E-1,9.178833008E0
2.361233838E1,-2.012489319E0,1.426369548E-1,9.196951866E0
2.363233682E1,-1.977275372E0,1.618959159E-1,9.173115730E0
2.365233682E1,-1.958686709E0,2.012374401E-1,9.170538902E0
2.367233682E1,-1.944857836E0,1.895633042E-1,9.183142662E0
2.369233838E1,-1.960266948E0,1.539184302E-1,9.178143501E0
2.371233838E1,-1.961626887E0,1.550101936E-1,9.184271812E0
2.373233682E1,-1.971845269E0,1.518881470E-1,9.173919678E0
2.375233994E1,-1.969623446E0,1.302541494E-1,9.196578026E0
2.377233838E1,-1.978472471E0,1.360864192E-1,9.202545166E0
2.379233838E1,-1.962182283E0,1.456057578E-1,9.198896408E0
2.381233682E1,-1.951006174E0,1.511603147E-1,9.185957909E0
2.383233838E1,-1.955583811E0,1.678048074E-1,9.174465179E0
2.385233682E1,-1.938690424E0,1.800822616E-1,9.190478325E0
2.387233682E1,-1.934715986E0,1.848706752E-1,9.209833145E0
2.389233682E1,-1.932561278E0,1.645869911E-1,9.198254585E0
2.391233838E1,-1.958322883E0,1.524148732E-1,9.207583427E0
2.393233838E1,-1.959692359E0,1.457972974E-1,9.202363014E0
2.395233838E1,-1.964988351E0,1.699883193E-1,9.192738533E0
2.397233838E1,-1.952797055E0,1.531905979E-1,9.194270134E0
2.399233682E1,-1.919460177E0,1.605072767E-1,9.195285797E0
2.401233838E1,-1.917305350E0,1.775061041E-1,9.201060295E0
2.403233682E1,-1.931392908E0,1.553836912E-1,9.203578949E0
2.405233838E1,-1.933432698E0,1.651616096E-1,9.187500000E0
2.407233838E1,-1.948640704E0,1.676898748E-1,9.188888550E0
2.409233682E1,-1.936679244E0,1.445523202E-1,9.207141876E0
2.411233838E1,-1.934486151E0,1.516008526E-1,9.194577217E0
2.413233838E1,-1.934869289E0,1.474253535E-1,9.196331024E0
2.415233682E1,-1.930703282E0,1.523861438E-1,9.189175606E0
2.417233682E1,-1.939571500E0,1.722867489E-1,9.205542564E0
2.419233838E1,-1.947596788E0,1.612542719E-1,9.201692581E0
2.421233682E1,-1.928050518E0,1.707161516E-1,9.207084656E0
2.423233838E1,-1.937991261E0,1.537268907E-1,9.198073387E0
2.425233838E1,-1.905592918E0,1.432307214E-1,9.203732491E0
2.427233838E1,-1.915140986E0,1.585248709E-1,9.213586807E0
2.429233838E1,-1.934581876E0,1.534587443E-1,9.194855690E0
2.431233682E1,-1.933164597E0,1.511794627E-1,9.199231148E0
2.433233838E1,-1.929257274E0,1.664161682E-1,9.200916290E0
2.435233682E1,-1.937665701E0,1.711854190E-1,9.224447250E0
2.437233682E1,-1.921748996E0,1.695573628E-1,9.219820976E0
2.439233682E1,-1.933509350E0,1.510645449E-1,9.213319778E0
2.441233838E1,-1.940059900E0,1.525585204E-1,9.192938805E0
2.443233838E1,-1.945681453E0,1.136000752E-1,9.185401917E0
2.445233682E1,-1.978951335E0,1.020025685E-1,9.184751511E0
2.447233838E1,-2.005277872E0,1.178713366E-1,9.201731682E0
2.449233838E1,-1.982628822E0,1.376953274E-1,9.210762024E0
2.451233682E1,-1.962469578E0,1.787798256E-1,9.208644867E0
2.453233682E1,-1.918789744E0,1.959989220E-1,9.181743622E0
2.455233838E1,-1.919852853E0,1.688390970E-1,9.192019463E0
2.457233838E1,-1.921653271E0,1.580364555E-1,9.195104599E0
2.459233838E1,-1.930176616E0,1.390073448E-1,9.194768906E0
2.461233838E1,-1.966539741E0,1.446289271E-1,9.193322182E0
2.463233682E1,-1.998823166E0,1.290378869E-1,9.187270164E0
2.465233682E1,-2.009376764E0,1.065228209E-1,9.180183411E0
2.467233682E1,-1.979315162E0,1.187907085E-1,9.178267479E0
2.469233838E1,-1.981853008E0,1.278599352E-1,9.178593636E0
2.471233838E1,-1.989121795E0,1.510166675E-1,9.167091370E0
2.473233682E1,-1.980234623E0,1.647402197E-1,9.193082809E0
2.475233682E1,-1.998238921E0,1.664353162E-1,9.197986603E0
2.477233838E1,-1.982992649E0,1.556805670E-1,9.203253746E0
2.479233838E1,-1.982015848E0,1.254561692E-1,9.208703041E0
2.481233682E1,-1.984706879E0,1.318247467E-1,9.190468788E0
2.483233838E1,-1.980991125E0,1.283866614E-1,9.163184166E0
2.485233838E1,-1.967095137E0,1.298614889E-1,9.194959641E0
2.487233838E1,-1.978731036E0,1.274385601E-1,9.208597183E0
2.489233682E1,-1.963015437E0,1.352436543E-1,9.193073273E0
2.491233838E1,-1.995940566E0,1.283579320E-1,9.185728073E0
2.493233682E1,-1.999608397E0,1.387008876E-1,9.185891151E0
2.495233682E1,-2.013427734E0,1.156686693E-1,9.192182541E0
2.497233994E1,-2.019901752E0,1.212519482E-1,9.181879044E0
2.499233682E1,-2.018110752E0,1.259062737E-1,9.183726311E0
2.501233682E1,-2.027333260E0,1.077773795E-1,9.200056076E0
2.503233682E1,-2.003917933E0,1.321407706E-1,9.181571960E0
2.505233838E1,-2.021970272E0,1.299093813E-1,9.186524391E0
2.507233838E1,-2.030282974E0,1.202559546E-1,9.187834740E0
2.509233682E1,-2.028578281E0,1.233205348E-1,9.182415962E0
2.511233838E1,-2.020284891E0,1.158697829E-1,9.189779282E0
2.513233682E1,-2.034017801E0,1.064557806E-1,9.180020332E0
2.515233682E1,-2.040664196E0,1.189343557E-1,9.189233780E0
2.517233682E1,-2.035291672E0,1.065036654E-1,9.171401024E0
2.519233838E1,-2.055335999E0,1.004702747E-1,9.185631752E0
2.521233682E1,-2.063514471E0,1.083136797E-1,9.178823471E0
2.523233682E1,-2.056935310E0,1.206198782E-1,9.172914505E0
2.525233682E1,-2.055517912E0,1.105546504E-1,9.183486938E0
2.527233838E1,-2.048229933E0,1.001255140E-1,9.175959587E0
2.529233838E1,-2.045021772E0,9.752061963E-2,9.187864304E0
2.531233682E1,-2.051466942E0,1.240100637E-1,9.178737640E0
2.533233838E1,-2.052481890E0,8.679459989E-2,9.167753220E0
2.535233838E1,-2.082648993E0,6.023811176E-2,9.190928459E0
2.537233682E1,-2.088816404E0,8.199661970E-2,9.176420212E0
2.539233682E1,-2.062049150E0,1.003074721E-1,9.176582336E0
2.541233838E1,-2.042570114E0,1.335294098E-1,9.168067932E0
2.543233838E1,-2.033108234E0,1.446768194E-1,9.183199883E0
2.545233682E1,-2.034879923E0,1.326196194E-1,9.170644760E0
2.547233838E1,-2.057002306E0,9.973286092E-2,9.168221474E0
2.549233838E1,-2.084746361E0,9.445603937E-2,9.169887543E0
2.551233838E1,-2.081107140E0,9.967540205E-2,9.163884163E0
2.553233682E1,-2.077036858E0,9.234914184E-2,9.179599762E0
2.555233838E1,-2.063677311E0,9.673532099E-2,9.167361259E0
2.557233838E1,-2.051217794E0,1.049139127E-1,9.163710594E0
2.559233838E1,-2.052060604E0,1.176127568E-1,9.166814804E0
2.561233838E1,-2.044734478E0,1.415451914E-1,9.177386284E0
2.563233838E1,-2.026557684E0,1.466017514E-1,9.198790550E0
2.565233838E1,-2.024785757E0,1.335485727E-1,9.191799164E0
2.567233682E1,-2.029536009E0,1.195855811E-1,9.191389084E0
2.569233838E1,-2.030177593E0,1.135521904E-1,9.192469597E0
2.571233682E1,-2.015534639E0,1.077103391E-1,9.173939705E0
2.573233682E1,-2.054004669E0,1.169902682E-1,9.186043739E0
2.575233682E1,-2.040999413E0,1.243356764E-1,9.175559044E0
2.577233838E1,-2.049541950E0,1.410472095E-1,9.165166855E0
2.579233838E1,-2.016128540E0,1.184555218E-1,9.178525925E0
2.581233682E1,-2.022075653E0,1.531331390E-1,9.190546036E0
2.583233838E1,-2.035339594E0,1.321407706E-1,9.189414978E0
2.585233838E1,-2.016674280E0,1.365365237E-1,9.182950974E0
2.587233682E1,-2.007442236E0,1.350808591E-1,9.184166908E0
2.589233682E1,-2.009242773E0,1.443511993E-1,9.186398506E0
2.591233838E1,-1.981345534E0,1.507006288E-1,9.197037697E0
2.593233838E1,-1.993871927E0,1.383082420E-1,9.185900688E0
2.595233682E1,-2.006455898E0,1.229661927E-1,9.190210342E0
2.597233838E1,-2.018053293E0,1.519264579E-1,9.189435005E0
2.599233838E1,-2.003084898E0,1.603349000E-1,9.181236267E0
2.601233682E1,-1.979267359E0,1.370057911E-1,9.206193924E0
2.603233682E1,-1.974651337E0,1.356937736E-1,9.206796646E0
2.605233838E1,-1.988757968E0,1.403385252E-1,9.198274612E0
2.607233838E1,-1.992837667E0,1.578066200E-1,9.185469627E0
2.609233682E1,-1.979899406E0,1.477892697E-1,9.190765381E0
2.611233838E1,-1.953534484E0,1.467932910E-1,9.197565079E0
2.613233838E1,-1.957978010E0,1.508921683E-1,9.211596489E0
2.615233838E1,-1.957604527E0,1.537460536E-1,9.211681366E0
2.617233682E1,-1.983557701E0,1.648551524E-1,9.201711655E0
2.619233838E1,-2.012230635E0,1.382986605E-1,9.181686401E0
2.621233682E1,-2.012623310E0,1.260211915E-1,9.200217247E0
2.623233682E1,-1.991448998E0,1.479520798E-1,9.196511269E0
2.625233682E1,-1.953084350E0,1.716163754E-1,9.217254639E0
2.627233838E1,-1.938987255E0,1.844588667E-1,9.175701141E0
2.629233838E1,-1.919785738E0,1.815762520E-1,9.203513145E0
2.631233682E1,-1.932915568E0,1.777455211E-1,9.210513115E0
2.633233838E1,-1.936382413E0,1.600475907E-1,9.199902534E0
2.635233838E1,-1.975924969E0,1.273906827E-1,9.195908546E0
2.637233682E1,-1.974153280E0,1.512273550E-1,9.185125351E0
2.639233682E1,-1.970696092E0,1.465538740E-1,9.191838264E0
2.641233838E1,-1.964633942E0,1.665502340E-1,9.199614525E0
2.643233838E1,-1.975455761E0,1.835586429E-1,9.210579872E0
2.645233682E1,-1.945719719E0,1.414015442E-1,9.181677818E0
2.647233994E1,-1.921327591E0,1.761078984E-1,9.183736801E0
2.649233838E1,-1.944359899E0,1.729379743E-1,9.200880051E0
2.651233682E1,-1.925158381E0,1.554124206E-1,9.205513954E0
2.653233682E1,-1.941764593E0,1.435275972E-1,9.211691856E0
2.655233838E1,-1.944484353E0,1.606126130E-1,9.197613716E0
2.657233682E1,-1.956101060E0,1.540046185E-1,9.190593719E0
2.659233682E1,-1.938019991E0,1.646157205E-1,9.181467056E0
2.661233838E1,-1.946907282E0,1.721718311E-1,9.209918976E0
2.663233838E1,-1.911377311E0,1.624130607E-1,9.199077606E0
2.665233682E1,-1.919757009E0,1.686667204E-1,9.204086304E0
2.667233682E1,-1.929640293E0,1.520988345E-1,9.194528580E0
2.669233838E1,-1.943545818E0,1.560253352E-1,9.200562477E0
2.671233682E1,-1.930253267E0,1.614457965E-1,9.194558144E0
2.673233682E1,-1.928002715E0,1.683411002E-1,9.206578255E0
2.675233682E1,-1.945576072E0,1.717312932E-1,9.205840111E0
2.677233838E1,-1.926575780E0,1.591665298E-1,9.206701279E0
2.679233838E1,-1.924861431E0,1.622694135E-1,9.205677986E0
2.681233682E1,-1.929755211E0,1.826297045E-1,9.199643135E0
2.683233838E1,-1.938920259E0,1.738764942E-1,9.212696075E0
2.685233682E1,-1.926700234E0,1.782722473E-1,9.203301430E0
2.687233682E1,-1.913541675E0,1.564275622E-1,9.204958916E0
2.689233682E1,-1.892558932E0,1.657074839E-1,9.208128929E0
2.691233838E1,-1.893899679E0,1.465059817E-1,9.210464478E0
2.693233838E1,-1.909136415E0,1.546941549E-1,9.214343071E0
2.695233682E1,-1.918914318E0,1.528745592E-1,9.201261520E0
2.697233838E1,-1.923664331E0,1.649796367E-1,9.207544327E0
2.699233838E1,-1.930933118E0,1.848610938E-1,9.192288399E0
2.701233682E1,-1.928261280E0,1.756003201E-1,9.207400322E0
2.703233682E1,-1.913857698E0,1.631121635E-1,9.206817627E0
2.705233838E1,-1.909251332E0,1.683123708E-1,9.190938950E0
2.707233838E1,-1.903984070E0,1.713194847E-1,9.208539963E0
2.709233838E1,-1.911128283E0,1.779562235E-1,9.199576378E0
2.711233838E1,-1.942051888E0,1.323801875E-1,9.206059456E0
2.713233838E1,-1.961550236E0,1.521850377E-1,9.197048187E0
2.715233682E1,-1.927983522E0,1.515242308E-1,9.203513145E0
2.717233682E1,-1.897873998E0,1.577970386E-1,9.209842682E0
2.719233838E1,-1.871643186E0,2.079028934E-1,9.185345650E0
2.721233682E1,-1.866433382E0,2.104886323E-1,9.192499161E0
2.723233682E1,-1.898841262E0,1.840087622E-1,9.201444626E0
2.725233682E1,-1.907173157E0,1.698350906E-1,9.190564156E0
2.727233838E1,-1.931277990E0,1.499823630E-1,9.210091591E0
2.729233838E1,-1.940682411E0,1.348605901E-1,9.199173927E0
2.731233682E1,-1.941285729E0,1.534683257E-1,9.208750725E0
2.733233838E1,-1.939063907E0,1.520605385E-1,9.186244965E0
2.735233682E1,-1.895058393E0,1.508346945E-1,9.190879822E0
2.737233682E1,-1.892204523E0,1.982877702E-1,9.206509590E0
2.739233682E1,-1.886065841E0,1.976461262E-1,9.211461067E0
2.741233838E1,-1.896370530E0,1.875138730E-1,9.201731682E0
2.743233838E1,-1.899262667E0,1.609190851E-1,9.200514793E0
2.745233682E1,-1.903600931E0,1.522329152E-1,9.201912880E0
2.747233994E1,-1.910027027E0,1.556231081E-1,9.195937157E0
2.749233838E1,-1.929994583E0,1.822370440E-1,9.184521675E0
2.751233682E1,-1.939303279E0,1.826584339E-1,9.193724632E0
2.753233682E1,-1.929975510E0,1.918234378E-1,9.205992699E0
2.755233838E1,-1.908169150E0,1.950891167E-1,9.205945015E0
2.757233682E1,-1.883039594E0,1.772475392E-1,9.205666542E0
2.759233682E1,-1.879026890E0,1.792395115E-1,9.182222366E0
2.761233838E1,-1.869938493E0,1.642709672E-1,9.185891151E0
2.763233838E1,-1.884294152E0,1.435275972E-1,9.201560020E0
2.765233838E1,-1.901254654E0,1.655063629E-1,9.195228577E0
2.767233682E1,-1.900086284E0,1.736658067E-1,9.185460091E0
2.769233838E1,-1.925263643E0,1.684464514E-1,9.193073273E0
2.771233838E1,-1.932628274E0,1.647881120E-1,9.177520752E0
2.773233838E1,-1.933882833E0,1.542440504E-1,9.197679520E0
2.775233682E1,-1.932542086E0,1.560827941E-1,9.204413414E0
2.777233838E1,-1.948497057E0,1.713194847E-1,9.193839073E0
2.779233838E1,-1.936602592E0,1.614841074E-1,9.190199852E0
2.781233682E1,-1.916060328E0,1.574331224E-1,9.185125351E0
2.783233838E1,-1.892712116E0,1.447151154E-1,9.193343163E0
2.785233682E1,-1.912325382E0,1.390743852E-1,9.213193893E0
2.787233682E1,-1.924641252E0,1.389403045E-1,9.187538147E0
2.789233682E1,-1.925043464E0,1.383082420E-1,9.192642212E0
2.791233838E1,-1.924057007E0,1.396777183E-1,9.196127892E0
2.793233838E1,-1.926652312E0,1.480191201E-1,9.205121040E0
2.795233838E1,-1.938699961E0,1.564754397E-1,9.202238083E0
2.797233838E1,-1.969891667E0,1.590611786E-1,9.187595367E0
2.799233838E1,-1.980004668E0,1.223149747E-1,9.169486046E0
2.801233682E1,-2.001629114E0,8.939948678E-2,9.181726456E0
2.803233682E1,-2.028587818E0,1.029985547E-1,9.179033279E0
2.805233838E1,-1.988001347E0,1.257913560E-1,9.194519043E0
2.807233838E1,-1.955526352E0,1.514571905E-1,9.197804451E0
2.809233838E1,-1.918339610E0,1.520413756E-1,9.183391571E0
2.811233838E1,-1.929534912E0,1.566669792E-1,9.181159973E0
2.813233838E1,-1.947797894E0,1.237802207E-1,9.186724663E0
2.815233682E1,-1.979669571E0,1.217307895E-1,9.177683830E0
2.817233682E1,-2.010890007E0,8.845138550E-2,9.186618805E0
2.819233838E1,-2.013820410E0,1.072602347E-1,9.174283981E0
2.821233682E1,-1.998363495E0,1.296124905E-1,9.190526009E0
2.823233682E1,-2.011675119E0,1.082849503E-1,9.194624901E0
2.825233682E1,-2.026260614E0,1.173350289E-1,9.165406227E0
2.827233838E1,-2.027419567E0,1.145386025E-1,9.161815643E0
2.829233838E1,-1.999665856E0,1.248911321E-1,9.170865059E0
2.831233682E1,-1.996179938E0,1.345541328E-1,9.189635277E0
2.833233838E1,-1.982973576E0,1.163965017E-1,9.194644928E0
2.835233682E1,-2.011818886E0,8.762777597E-2,9.183802605E0
2.837233682E1,-2.030235052E0,9.984778613E-2,9.182740211E0
2.839233682E1,-2.061110735E0,9.388143569E-2,9.171956062E0
2.841233838E1,-2.067766666E0,1.151227877E-1,9.180996895E0
2.843233838E1,-2.070199013E0,9.570102394E-2,9.171813011E0
2.845233682E1,-2.054167509E0,1.166742295E-1,9.169351578E0
2.847233838E1,-2.047865868E0,1.061493233E-1,9.161863327E0
2.849233838E1,-2.044849396E0,8.838434517E-2,9.155590057E0
2.851233682E1,-2.053726912E0,9.554779530E-2,9.176246643E0
2.853233682E1,-2.037934780E0,8.528146148E-2,9.168623924E0
2.855233838E1,-2.045203686E0,8.389282227E-2,9.185297012E0
2.857233838E1,-2.051955223E0,1.061684787E-1,9.172454834E0
2.859233682E1,-2.066914320E0,7.710286975E-2,9.169390678E0
2.861233838E1,-2.061244726E0,9.215760976E-2,9.149603844E0
2.863233838E1,-2.098422050E0,8.275318146E-2,9.168307304E0
2.865233682E1,-2.096889734E0,8.958144486E-2,9.146615982E0
2.867233682E1,-2.120304823E0,7.528327405E-2,9.153426170E0
2.869233838E1,-2.136767387E0,7.824251056E-2,9.155235291E0
2.871233682E1,-2.110986710E0,5.429091677E-2,9.163385391E0
2.873233682E1,-2.115401506E0,7.494808733E-2,9.148590088E0
2.875233682E1,-2.111446381E0,6.653007120E-2,9.159516335E0
2.877233838E1,-2.111082554E0,7.782112807E-2,9.157170296E0
2.879233838E1,-2.104637384E0,6.631938368E-2,9.162782669E0
2.881233682E1,-2.110239744E0,7.211335003E-2,9.172080994E0
2.883233838E1,-2.139420271E0,7.416278869E-2,9.141139984E0
2.885233682E1,-2.140684366E0,3.887225688E-2,9.144040108E0
2.887233682E1,-2.156802177E0,6.806236506E-2,9.170586586E0
2.889233682E1,-2.175065041E0,7.123228908E-2,9.143494606E0
2.891233838E1,-2.174308538E0,8.550173044E-2,9.149393082E0
2.893233838E1,-2.114549160E0,1.059865132E-1,9.139098167E0
2.895233682E1,-2.080790997E0,1.199016199E-1,9.157917023E0
2.897234151E1,-2.102041960E0,1.026442125E-1,9.138265610E0
2.899233838E1,-2.111781597E0,5.650315806E-2,9.138735771E0
2.901233682E1,-2.135599136E0,5.021119490E-2,9.138064384E0
2.903233682E1,-2.158047199E0,4.231033102E-2,9.180996895E0
2.905233838E1,-2.143136024E0,6.624276936E-2,9.160732269E0
2.907233838E1,-2.151487112E0,9.323978424E-2,9.156777382E0
2.909233838E1,-2.139295816E0,9.875603020E-2,9.143523216E0
2.911233838E1,-2.126893759E0,1.337975562E-1,9.137681961E0
2.913233838E1,-2.095060587E0,1.086201370E-1,9.148397446E0
2.915233682E1,-2.111446381E0,8.275318146E-2,9.153702736E0
2.917233682E1,-2.087178707E0,8.086655289E-2,9.175604820E0
2.919233838E1,-2.102769852E0,9.261729568E-2,9.164822578E0
2.921233682E1,-2.081087828E0,9.562440962E-2,9.170405388E0
2.923233682E1,-2.103038073E0,1.043584570E-1,9.162838936E0
2.925233682E1,-2.088644028E0,9.540414810E-2,9.161126137E0
2.927233838E1,-2.093413353E0,9.187030047E-2,9.139165878E0
2.929233838E1,-2.078473330E0,9.798987955E-2,9.160387993E0
2.931233682E1,-2.077956200E0,1.246229783E-1,9.156690598E0
2.933233838E1,-2.081135750E0,1.267203093E-1,9.162582397E0
2.935233838E1,-2.083989620E0,1.140214577E-1,9.160666466E0
2.937233682E1,-2.069021225E0,1.178330258E-1,9.188600540E0
2.939233682E1,-2.070371389E0,1.254561692E-1,9.152659416E0
2.941233838E1,-2.058611155E0,1.127668917E-1,9.162457466E0
2.943233838E1,-2.048335314E0,1.016482264E-1,9.162437439E0
2.945233682E1,-2.047616959E0,1.206102967E-1,9.170980453E0
2.947233838E1,-2.043345690E0,1.291719675E-1,9.169496536E0
2.949233838E1,-2.051553011E0,1.194993928E-1,9.172215462E0
2.951233838E1,-2.045921803E0,1.206294522E-1,9.153856277E0
2.953233682E1,-2.045299292E0,1.288655102E-1,9.196147919E0
2.955233838E1,-2.029909372E0,1.292581558E-1,9.168030739E0
2.957233838E1,-2.035990715E0,1.127956286E-1,9.170855522E0
2.959233682E1,-2.013762951E0,1.157165542E-1,9.184214592E0
2.961233838E1,-2.012000799E0,1.359044611E-1,9.168077469E0
2.963233838E1,-2.009012938E0,1.240866780E-1,9.187768936E0
2.965233838E1,-2.026710749E0,1.256955862E-1,9.172320366E0
2.967233682E1,-2.027716398E0,1.085531041E-1,9.175807953E0
2.969233838E1,-2.040271521E0,1.030943245E-1,9.187155724E0
2.971233682E1,-2.044446945E0,1.224969327E-1,9.175203323E0
2.973233682E1,-2.026624680E0,1.305031478E-1,9.181897163E0
2.975233682E1,-1.970131040E0,1.795842797E-1,9.173756599E0
2.977233838E1,-1.985980630E0,1.942367852E-1,9.166354179E0
2.979233838E1,-1.995806456E0,1.518115401E-1,9.169054985E0
2.981233682E1,-1.968732834E0,1.400416344E-1,9.182212830E0
2.983233838E1,-1.994810462E0,1.380017847E-1,9.194893837E0
2.985233838E1,-1.997271657E0,1.296603829E-1,9.173001289E0
2.987233682E1,-2.003563643E0,1.288367808E-1,9.175404549E0
2.989233682E1,-1.990481734E0,1.592144072E-1,9.184942245E0
2.991233838E1,-1.984208941E0,1.479712427E-1,9.174312592E0
2.993233838E1,-1.993670821E0,1.692796350E-1,9.184463501E0
2.995233682E1,-1.975283384E0,1.784925163E-1,9.180088043E0
2.997233838E1,-1.964107275E0,1.708119214E-1,9.192776680E0
2.999233838E1,-1.943153143E0,1.599326730E-1,9.198034286E0
3.001233838E1,-1.961617231E0,1.513231248E-1,9.192893028E0
3.003233682E1,-1.972726345E0,1.407982111E-1,9.186800957E0
3.005233838E1,-1.972812533E0,1.493024081E-1,9.178776741E0
3.007233682E1,-1.977524281E0,1.432594508E-1,9.186878204E0
3.009233682E1,-1.949876070E0,1.696818620E-1,9.188179970E0
3.011233838E1,-1.945049405E0,1.698542386E-1,9.191637039E0
3.013233838E1,-1.942559361E0,1.651041359E-1,9.185825348E0
3.015233682E1,-1.932743192E0,1.798811555E-1,9.187279701E0
3.017233682E1,-1.929707289E0,1.575097293E-1,9.166555405E0
3.019233838E1,-1.986344576E0,1.684751809E-1,9.202592850E0
3.021233682E1,-1.962163091E0,1.570596248E-1,9.186964989E0
3.023233682E1,-1.940787673E0,1.819497496E-1,9.197957993E0
3.025233682E1,-1.931536555E0,1.865753382E-1,9.190843582E0
3.027233838E1,-1.940002441E0,1.801493019E-1,9.189625740E0
3.029233838E1,-1.931680202E0,1.606509238E-1,9.195419312E0
3.031233682E1,-1.932925105E0,1.348031312E-1,9.179599762E0
3.033233838E1,-1.937617779E0,1.506910473E-1,9.184695244E0
3.035233682E1,-1.930846930E0,1.775827259E-1,9.201960564E0
3.037233682E1,-1.920896649E0,1.696052402E-1,9.201673508E0
3.039233682E1,-1.937550783E0,1.731103510E-1,9.179904938E0
3.041233838E1,-1.935405493E0,1.546845734E-1,9.178507805E0
3.043233682E1,-1.954444170E0,1.543398052E-1,9.186754227E0
3.045233682E1,-1.935539603E0,1.612734199E-1,9.211826324E0
3.047233838E1,-1.895154238E0,1.535640955E-1,9.208836555E0
3.049233682E1,-1.911578417E0,1.569351256E-1,9.191676140E0
3.051233682E1,-1.922208667E0,1.700170487E-1,9.199796677E0
3.053233682E1,-1.942779660E0,1.659373194E-1,9.189558983E0
3.055233838E1,-1.944302440E0,1.068771631E-1,9.206089020E0
3.057233682E1,-1.958428144E0,1.378485560E-1,9.194433212E0
3.059233682E1,-1.947539330E0,1.419569999E-1,9.191320419E0
3.061233682E1,-1.906090975E0,1.890365779E-1,9.192239761E0
3.063233838E1,-1.905420542E0,1.945911348E-1,9.188114166E0
3.065233682E1,-1.899176478E0,1.960180700E-1,9.200323105E0
3.067233682E1,-1.895422339E0,1.948880106E-1,9.191925049E0
3.069233838E1,-1.925704241E0,1.564562917E-1,9.186428070E0
3.071233682E1,-1.931488633E0,1.451652348E-1,9.184551239E0
3.073233682E1,-1.929094434E0,1.690976769E-1,9.191703796E0
3.075233682E1,-1.933068752E0,1.610435694E-1,9.195755005E0
3.077233838E1,-1.932139874E0,1.430966407E-1,9.191253662E0
3.079233838E1,-1.934620261E0,1.647689492E-1,9.170204163E0
3.081233682E1,-1.955191255E0,1.800343841E-1,9.171401024E0
3.083233838E1,-1.917879939E0,2.022621483E-1,9.169486046E0
3.085233682E1,-1.904453278E0,2.036699355E-1,9.207524300E0
3.087233682E1,-1.893545270E0,1.662820876E-1,9.197143555E0
3.089233682E1,-1.896054387E0,1.826201230E-1,9.197890282E0
3.091233838E1,-1.926192641E0,1.801205724E-1,9.194021225E0
3.093233682E1,-1.935223579E0,1.608041525E-1,9.185230255E0
3.095233682E1,-1.894148707E0,1.746043414E-1,9.194242477E0
3.097233838E1,-1.904980063E0,1.644433439E-1,9.188974380E0
3.099233838E1,-1.915667772E0,1.543781161E-1,9.205255508E0
3.101233682E1,-1.914394021E0,1.766633540E-1,9.199940681E0
3.103233682E1,-1.938518047E0,1.759355068E-1,9.207764626E0
3.105233838E1,-1.952500105E0,1.718941033E-1,9.192912102E0
3.107233682E1,-1.950115561E0,1.400512159E-1,9.199653625E0
3.109233682E1,-1.966625929E0,1.280897856E-1,9.173517227E0
3.111233682E1,-1.946706176E0,1.557380259E-1,9.193629265E0
3.113233838E1,-1.927370548E0,1.778029948E-1,9.195937157E0
3.115233682E1,-1.940414190E0,1.631792039E-1,9.214468956E0
3.117233682E1,-1.938881874E0,1.429051012E-1,9.190632820E0
3.119234150E1,-1.961224556E0,1.493024081E-1,9.189396858E0
3.121233682E1,-1.950929523E0,1.506144404E-1,9.183793068E0
3.123233682E1,-1.924622059E0,1.658702940E-1,9.194127083E0
3.125233682E1,-1.909624815E0,1.482298076E-1,9.185786247E0
3.127233838E1,-1.925656319E0,1.441884041E-1,9.213769913E0
3.129233838E1,-1.942980766E0,1.275439113E-1,9.193467140E0
3.131233682E1,-1.959376335E0,1.225735471E-1,9.190899849E0
3.133233838E1,-1.958227038E0,1.459601074E-1,9.182740211E0
3.135233682E1,-1.944187522E0,1.441309303E-1,9.190611839E0
3.137233682E1,-1.966424823E0,1.473295838E-1,9.192786217E0
3.139233682E1,-1.974459767E0,1.460941881E-1,9.182529449E0
3.141233838E1,-1.982992649E0,1.541674286E-1,9.186676979E0
3.143233682E1,-1.990836143E0,1.507772356E-1,9.177932739E0
3.145233682E1,-2.001925945E0,9.805691987E-2,9.179340363E0
3.147233838E1,-2.036067247E0,9.949344397E-2,9.169102669E0
3.149233838E1,-2.004578829E0,1.073943079E-1,9.176764488E0
3.151233682E1,-1.981412530E0,1.428284943E-1,9.190928459E0
3.153233682E1,-1.934792638E0,1.780041009E-1,9.177866936E0
3.155233838E1,-1.969518065E0,1.637729704E-1,9.183459282E0
3.157233682E1,-1.993584633E0,1.220755503E-1,9.164323807E0
3.159233682E1,-2.021414757E0,1.258775443E-1,9.164553642E0
3.161233682E1,-2.024670839E0,1.068196967E-1,9.171381950E0
3.163233838E1,-2.050959349E0,1.118379459E-1,9.163854599E0
3.165233682E1,-2.041248322E0,1.085147932E-1,9.163088799E0
3.167233682E1,-2.049647331E0,1.033050120E-1,9.163107872E0
3.169233838E1,-2.043805361E0,9.319190681E-2,9.151299477E0
3.171233682E1,-2.042253971E0,1.103918478E-1,9.150581360E0
3.173233682E1,-2.029325247E0,1.348701715E-1,9.171066284E0
3.175233682E1,-2.019547462E0,1.185225546E-1,9.183210373E0
3.177233838E1,-2.031585455E0,1.084573343E-1,9.179321289E0
3.179233838E1,-2.042349815E0,1.090223640E-1,9.163528442E0
3.181233682E1,-2.073771238E0,8.222646266E-2,9.166287422E0
3.183233838E1,-2.072957277E0,1.243165210E-1,9.173028946E0
3.185233682E1,-2.068695545E0,1.069346219E-1,9.170175552E0
3.187233682E1,-2.072851896E0,9.835380316E-2,9.179140091E0
3.189233682E1,-2.068436861E0,1.039562300E-1,9.170136452E0
3.191233838E1,-2.071654797E0,9.305782616E-2,9.166344643E0
3.193233682E1,-2.092733383E0,9.961794317E-2,9.168882370E0
3.195233682E1,-2.082543612E0,8.141243458E-2,9.162523270E0
3.197233838E1,-2.082304239E0,7.756255567E-2,9.145821571E0
3.199233838E1,-2.086537123E0,9.015605599E-2,9.164601326E0
3.201233682E1,-2.081356049E0,9.148722887E-2,9.172809601E0
3.203233682E1,-2.086230755E0,8.634448797E-2,9.166248322E0
3.205233838E1,-2.105882168E0,1.003074721E-1,9.160186768E0
3.207233682E1,-2.117020130E0,7.392337173E-2,9.158654213E0
3.209233682E1,-2.107175112E0,6.128198281E-2,9.145563126E0
3.211233682E1,-2.122354269E0,6.672161072E-2,9.147143364E0
3.213233838E1,-2.107404947E0,7.295610756E-2,9.152659416E0
3.215233682E1,-2.138386011E0,7.812758535E-2,9.169295311E0
3.217233682E1,-2.147761583E0,7.216123492E-2,9.145248413E0
3.219233838E1,-2.145482302E0,7.418194413E-2,9.161680222E0
3.221233682E1,-2.130733967E0,6.994899362E-2,9.144615173E0
3.223233682E1,-2.124049425E0,1.029219404E-1,9.173718452E0
3.225233682E1,-2.161676645E0,8.211153746E-2,9.145160675E0
3.227233838E1,-2.188702583E0,4.810429737E-2,9.145323753E0
3.229233838E1,-2.182420015E0,2.859634347E-2,9.152736664E0
3.231233682E1,-2.195559502E0,5.673300102E-2,9.143225670E0
3.233233838E1,-2.129948854E0,7.156747580E-2,9.136131287E0
3.235233682E1,-2.117125511E0,1.232343465E-1,9.152908325E0
3.237233682E1,-2.128052473E0,1.041190401E-1,9.145294189E0
3.239233682E1,-2.159445286E0,7.392337173E-2,9.129818916E0
3.241233838E1,-2.165938377E0,6.306327134E-2,9.128200531E0
3.243233682E1,-2.162663221E0,5.269159004E-2,9.127500534E0
3.245233682E1,-2.148738384E0,4.563348368E-2,9.147612572E0
3.247233838E1,-2.170851231E0,4.646666348E-2,9.154871941E0
3.249233838E1,-2.177009106E0,5.453033745E-2,9.123220444E0
3.251233682E1,-2.147522211E0,7.277414948E-2,9.124541283E0
3.253233682E1,-2.135848045E0,1.098363921E-1,9.148158073E0
3.255233838E1,-2.144620419E0,1.254753172E-1,9.146482468E0
3.257233682E1,-2.134574413E0,1.089170203E-1,9.154344559E0
3.259233682E1,-2.131011724E0,8.020575345E-2,9.153655052E0
3.261233682E1,-2.135819435E0,8.083782345E-2,9.165827751E0
3.263233838E1,-2.123340845E0,9.111373872E-2,9.146137238E0
3.265233682E1,-2.097272635E0,1.002308577E-1,9.148053169E0
3.267233682E1,-2.101572752E0,9.764511883E-2,9.150227547E0
3.269233838E1,-2.113888502E0,9.332598001E-2,9.150973320E0
3.271233682E1,-2.102645397E0,1.093575507E-1,9.146683693E0
3.273233682E1,-2.082256317E0,9.068278223E-2,9.157600403E0
3.275233682E1,-2.091564894E0,1.221330091E-1,9.142325401E0
3.277233838E1,-2.109818220E0,1.018014550E-1,9.162082672E0
3.279233838E1,-2.105489731E0,9.188945591E-2,9.159526825E0
3.281233682E1,-2.099322081E0,1.113112196E-1,9.160579681E0
3.283233838E1,-2.084391832E0,1.096065491E-1,9.162265778E0
3.285233682E1,-2.088184357E0,1.109664589E-1,9.161767960E0
3.287233682E1,-2.072679520E0,1.133510843E-1,9.157237053E0
3.289233682E1,-2.087360620E0,1.130254716E-1,9.156825066E0
3.291233838E1,-2.082304239E0,1.195855811E-1,9.163107872E0
3.293233682E1,-2.086518049E0,1.066090092E-1,9.161623001E0
3.295233682E1,-2.061149120E0,1.217499375E-1,9.163959503E0
3.297233838E1,-2.050173998E0,1.339507848E-1,9.165781021E0
3.299233838E1,-2.048048019E0,1.024909839E-1,9.172933578E0
3.301233682E1,-2.028942108E0,1.150557548E-1,9.170654297E0
3.303233682E1,-2.048804522E0,1.286165118E-1,9.172827721E0
3.305233838E1,-2.045969725E0,1.453855038E-1,9.194921494E0
3.307233838E1,-2.070285320E0,1.327345371E-1,9.166880608E0
3.309233838E1,-2.090932846E0,8.761820197E-2,9.170740128E0
3.311233682E1,-2.067977190E0,1.119049862E-1,9.175979614E0
3.313233838E1,-2.050432444E0,1.366993338E-1,9.184685707E0
3.315233682E1,-2.035885334E0,1.581322253E-1,9.163298607E0
3.317233682E1,-2.012202024E0,1.828212291E-1,9.174905777E0
3.319233838E1,-2.017421246E0,1.570213139E-1,9.183746338E0
3.321233682E1,-2.002280474E0,1.449258178E-1,9.182375908E0
3.323233682E1,-2.039352179E0,1.321503520E-1,9.173708916E0
3.325233682E1,-2.048392773E0,1.265096068E-1,9.165473938E0
3.327233838E1,-2.038394451E0,1.219797805E-1,9.174150467E0
3.329233994E1,-2.029909372E0,1.377719343E-1,9.200332642E0
3.331233682E1,-2.002194166E0,1.468890607E-1,9.191109657E0
3.333233838E1,-2.013197899E0,1.574427038E-1,9.204739571E0
3.335233838E1,-1.989093065E0,1.780807078E-1,9.167617798E0
3.337233682E1,-2.002366543E0,1.705246121E-1,9.180422783E0
3.339233682E1,-1.994283795E0,1.450886130E-1,9.176122665E0
3.341233838E1,-1.992387533E0,1.469082087E-1,9.186820030E0
3.343233838E1,-1.999886155E0,1.528075188E-1,9.203464508E0
3.345233682E1,-2.020026207E0,1.507293582E-1,9.177826881E0
3.347233838E1,-2.021481991E0,1.651999056E-1,9.164160728E0
3.349233838E1,-2.007940292E0,1.584003717E-1,9.171995163E0
3.351233682E1,-1.977735043E0,1.749107987E-1,9.189003944E0
3.353233682E1,-1.971050382E0,1.604881287E-1,9.210905075E0
3.355233838E1,-1.965131998E0,1.692796350E-1,9.199872971E0
3.357233838E1,-1.984524965E0,1.513518542E-1,9.176267624E0
3.359233838E1,-2.009549141E0,1.450503170E-1,9.177712440E0
3.361233682E1,-1.980435729E0,1.429721415E-1,9.192058563E0
3.363233838E1,-1.964806318E0,1.812793612E-1,9.195545197E0
3.365233682E1,-1.953687668E0,1.759642363E-1,9.195859909E0
3.367233682E1,-1.975714326E0,1.661575884E-1,9.180988312E0
3.369233838E1,-1.986612678E0,1.688965559E-1,9.185871124E0
3.371233838E1,-1.992397070E0,1.686762869E-1,9.166679382E0
3.373233682E1,-1.976126075E0,1.844684482E-1,9.180613518E0
3.375233682E1,-1.957345963E0,1.813559830E-1,9.185375214E0
3.377233838E1,-1.917448997E0,1.695286334E-1,9.190219879E0
3.379233838E1,-1.945260048E0,1.603731960E-1,9.184598923E0
3.381233682E1,-1.965160728E0,1.355118155E-1,9.172415733E0
3.383233838E1,-1.971127033E0,1.618863344E-1,9.215330124E0
3.385233838E1,-1.974325657E0,1.666364372E-1,9.190277100E0
3.387233682E1,-1.978855491E0,1.732539982E-1,9.196933746E0
3.389233682E1,-1.952998161E0,1.815570891E-1,9.187500000E0
3.391233838E1,-1.945317507E0,1.638591588E-1,9.172234535E0
3.393233838E1,-1.925139189E0,1.974067092E-1,9.199452400E0
3.395233682E1,-1.958073854E0,1.829074323E-1,9.201885223E0
3.397233994E1,-1.961310744E0,1.420431882E-1,9.191934586E0
3.399233838E1,-1.985712528E0,1.359810680E-1,9.189645767E0
3.401233682E1,-1.961684346E0,1.461612135E-1,9.176304817E0
3.403233682E1,-1.949876070E0,1.967267543E-1,9.200045586E0
3.405233838E1,-1.918435454E0,1.983260810E-1,9.183773994E0
3.407233682E1,-1.915993333E0,2.196727842E-1,9.184071541E0
3.409233682E1,-1.950134635E0,1.823232472E-1,9.174848557E0
3.411233682E1,-1.925895810E0,1.886535138E-1,9.181638718E0
3.413233838E1,-1.939705491E0,1.501739025E-1,9.203742027E0
3.415233838E1,-1.970763087E0,1.571649760E-1,9.179953575E0
3.417233682E1,-1.951255202E0,1.622598320E-1,9.185891151E0
3.419233838E1,-1.945700645E0,1.551921517E-1,9.199126244E0
3.421233838E1,-1.940596223E0,1.759163588E-1,9.175710678E0
3.423233682E1,-1.935233116E0,1.766729206E-1,9.186905861E0
3.425233682E1,-1.944082141E0,1.926949173E-1,9.179512978E0
3.427233838E1,-1.909471512E0,1.905880272E-1,9.207094193E0
3.429233838E1,-1.942262530E0,1.720856279E-1,9.202104568E0
3.431233682E1,-1.941831589E0,1.633037031E-1,9.203502655E0
3.433233838E1,-1.946236849E0,1.586206406E-1,9.198158264E0
3.435233838E1,-1.951360464E0,1.938058287E-1,9.187720299E0
3.437233682E1,-1.946849823E0,1.882321239E-1,9.197191238E0
3.439233682E1,-1.923080206E0,1.883662045E-1,9.192413330E0
3.441233838E1,-1.907556176E0,1.801493019E-1,9.192663193E0
3.443233838E1,-1.913666129E0,1.706203818E-1,9.187825203E0
3.445233682E1,-1.919929385E0,1.779466420E-1,9.190305710E0
3.447233838E1,-1.936851621E0,1.713961065E-1,9.194731712E0
3.449233838E1,-1.948736429E0,1.710609198E-1,9.197451591E0
3.451233838E1,-1.944896102E0,1.681208313E-1,9.190180779E0
3.453233682E1,-1.957326889E0,1.799769253E-1,9.199653625E0
3.455233838E1,-1.958571792E0,1.757822782E-1,9.192576408E0
3.457233682E1,-1.972860456E0,1.826009750E-1,9.193532944E0
3.459233682E1,-1.973368049E0,1.661480069E-1,9.183420181E0
3.461233682E1,-2.001360893E0,1.669907719E-1,9.179933548E0
3.463233838E1,-1.959184766E0,1.492545307E-1,9.200467110E0
3.465233682E1,-1.946514606E0,1.704575717E-1,9.194032669E0
3.467233682E1,-1.934543610E0,1.758589000E-1,9.203588486E0
3.469233838E1,-1.936660051E0,1.753992140E-1,9.191983223E0
3.471233682E1,-1.946112394E0,1.508346945E-1,9.209478378E0
3.473233682E1,-1.938058257E0,1.413440853E-1,9.188189507E0
3.475233682E1,-1.963839054E0,1.398501098E-1,9.203800201E0
3.477233838E1,-1.986315846E0,1.320641637E-1,9.191454887E0
3.479233838E1,-2.009463072E0,1.434509903E-1,9.187040329E0
3.481233682E1,-1.996371508E0,1.565999389E-1,9.187010765E0
3.483233838E1,-2.020074129E0,1.669524610E-1,9.182500839E0
3.485233838E1,-1.988585591E0,1.748437583E-1,9.205494881E0
3.487233838E1,-2.011579514E0,1.457398385E-1,9.182529449E0
3.489233682E1,-2.012776613E0,8.846095949E-2,9.172636032E0
3.491233838E1,-2.019413233E0,9.458053857E-2,9.178709030E0
3.493233838E1,-2.000451088E0,1.176893711E-1,9.194567680E0
3.495233682E1,-1.985520959E0,1.687433273E-1,9.202134132E0
3.497233838E1,-1.953678131E0,1.760216951E-1,9.192977905E0
3.499233838E1,-1.983624816E0,1.552017182E-1,9.196913719E0
3.501233682E1,-2.009807825E0,1.269501448E-1,9.187528610E0
3.503233682E1,-2.046170950E0,1.143853739E-1,9.165713310E0
3.505233838E1,-2.058189869E0,1.079306081E-1,9.162955284E0
3.507233682E1,-2.071712255E0,1.028070152E-1,9.169955254E0
3.509233682E1,-2.064970255E0,1.094054356E-1,9.171965599E0
3.511233682E1,-2.069777727E0,1.054597944E-1,9.159986496E0
3.513233838E1,-2.053841829E0,1.211466044E-1,9.165033340E0
3.515233682E1,-2.039189339E0,1.350521296E-1,9.172875404E0
3.517233682E1,-2.046764612E0,1.412387341E-1,9.170577049E0
3.519233994E1,-2.049235344E0,1.320641637E-1,9.186111450E0
3.521233682E1,-2.040443897E0,1.201793402E-1,9.181323051E0
3.523233838E1,-2.059846640E0,1.056896374E-1,9.171066284E0
3.525233682E1,-2.090051889E0,1.117326021E-1,9.183477402E0
3.527233838E1,-2.094208241E0,1.182927117E-1,9.168087006E0
3.529233838E1,-2.081289053E0,9.730993211E-2,9.176284790E0
3.531233682E1,-2.084679127E0,1.053927541E-1,9.157035828E0
3.533233838E1,-2.077898741E0,1.151036397E-1,9.169544220E0
3.535233682E1,-2.075619459E0,9.928274900E-2,9.176035881E0
3.537233838E1,-2.096018076E0,1.032188162E-1,9.173364639E0
3.539233682E1,-2.098517656E0,9.201395512E-2,9.160762787E0
3.541233838E1,-2.096631050E0,6.642472744E-2,9.160196304E0
3.543233838E1,-2.109023571E0,1.007001176E-1,9.158903122E0
3.545233682E1,-2.117297888E0,1.135330424E-1,9.177654266E0
3.547233838E1,-2.088270426E0,1.365461051E-1,9.155427933E0
3.549233838E1,-2.079095840E0,1.088020951E-1,9.171535492E0
3.551233838E1,-2.098297358E0,9.749189019E-2,9.162618637E0
3.553233682E1,-2.122153282E0,5.178179219E-2,9.153465271E0
3.555233838E1,-2.141316414E0,5.930916220E-2,9.144721031E0
3.557233682E1,-2.135886431E0,9.076897055E-2,9.157620430E0
3.559233682E1,-2.126797915E0,9.929233044E-2,9.151002884E0
3.561233682E1,-2.137792110E0,9.322063625E-2,9.155771255E0
3.563233838E1,-2.140195847E0,8.564537764E-2,9.138246536E0
3.565233838E1,-2.148058414E0,9.609367698E-2,9.142565727E0
3.567233838E1,-2.134967089E0,1.053161398E-1,9.163146019E0
3.569233838E1,-2.121061563E0,1.171626523E-1,9.151636124E0
3.571233838E1,-2.125409365E0,8.148904890E-2,9.157946587E0
3.573233838E1,-2.126769304E0,6.497862935E-2,9.154794693E0
3.575233682E1,-2.112432718E0,8.319371939E-2,9.176984787E0
3.577233838E1,-2.074115992E0,9.805691987E-2,9.170683861E0
3.579233838E1,-2.056600094E0,1.226405799E-1,9.169706345E0
3.581233682E1,-2.061005354E0,1.512560844E-1,9.168173790E0
3.583233838E1,-2.084593058E0,1.109185740E-1,9.146147728E0
3.585233838E1,-2.112911701E0,1.175840273E-1,9.157160759E0
3.587233682E1,-2.124997616E0,1.195951551E-1,9.143543243E0
3.589233682E1,-2.127650261E0,1.088978648E-1,9.159813881E0
3.591233838E1,-2.109770536E0,1.092617810E-1,9.151357651E0
3.593233838E1,-2.101237535E0,9.726204723E-2,9.142163277E0
3.595233838E1,-2.089917660E0,1.147109866E-1,9.147201538E0
3.597233838E1,-2.101831198E0,1.436137855E-1,9.154622078E0
3.599233838E1,-2.062240839E0,1.634569317E-1,9.169226646E0
3.601233682E1,-2.055968046E0,1.569447070E-1,9.176698685E0
3.603233682E1,-2.033768892E0,9.985736012E-2,9.177099228E0
3.605233838E1,-2.033931732E0,1.200261116E-1,9.180777550E0
3.607233838E1,-2.055211306E0,1.303499192E-1,9.175683022E0
3.609233682E1,-2.043795824E0,1.536694318E-1,9.165798187E0
3.611233682E1,-2.065544844E0,1.319013536E-1,9.176764488E0
3.613233838E1,-2.065870285E0,1.344296336E-1,9.159536362E0
3.615233838E1,-2.077343464E0,1.553357989E-1,9.200773239E0
3.617233682E1,-2.066042662E0,1.479424983E-1,9.151606560E0
3.619233838E1,-2.041353703E0,1.467741281E-1,9.175959587E0
3.621233682E1,-2.036249399E0,1.501068622E-1,9.171296120E0
3.623233838E1,-2.015295267E0,1.631408930E-1,9.178593636E0
3.625233682E1,-2.006111145E0,1.585057229E-1,9.178793907E0
3.627233838E1,-1.998679519E0,1.285973638E-1,9.185680389E0
3.629233838E1,-2.009041548E0,1.320162714E-1,9.181619644E0
3.631233838E1,-2.010612249E0,1.640794277E-1,9.182510376E0
3.633233838E1,-2.012757301E0,1.626907885E-1,9.181063652E0
3.635233838E1,-2.008696795E0,1.701798439E-1,9.179283142E0
3.637233682E1,-2.006159067E0,1.594059467E-1,9.178948402E0
3.639233682E1,-1.996371508E0,1.453567743E-1,9.177023888E0
3.641233838E1,-2.011253834E0,1.371207088E-1,9.186130524E0
3.643233838E1,-2.010171652E0,1.403002143E-1,9.179244041E0
3.645233682E1,-2.012948990E0,1.601529270E-1,9.182682991E0
3.647233682E1,-1.980809212E0,1.657840908E-1,9.179953575E0
3.649233838E1,-1.945518613E0,1.710992306E-1,9.197641373E0
3.651233682E1,-1.949473858E0,1.599805504E-1,9.190353394E0
3.653233682E1,-1.962977171E0,1.744223684E-1,9.197374344E0
3.655233994E1,-2.001064062E0,1.582758725E-1,9.177473068E0
3.657233682E1,-2.005364180E0,1.501260102E-1,9.187355995E0
3.659233682E1,-2.019748449E0,1.607083827E-1,9.182568550E0
3.661233682E1,-1.991429806E0,1.940260977E-1,9.192566872E0
3.663233838E1,-1.953917503E0,1.776497662E-1,9.202851295E0
3.665233838E1,-1.912478685E0,1.996285319E-1,9.174063683E0
3.667233682E1,-1.916874409E0,1.924267709E-1,9.183296204E0
3.669233838E1,-1.940126896E0,1.719994396E-1,9.203311920E0
3.671233838E1,-1.944110870E0,1.654967964E-1,9.186886787E0
3.673233682E1,-1.980761290E0,1.544068456E-1,9.200447083E0
3.675233682E1,-1.993670821E0,1.619246453E-1,9.183411598E0
3.677233838E1,-1.975292921E0,1.608616114E-1,9.186331749E0
3.679233838E1,-1.964308381E0,1.771230400E-1,9.197162628E0
3.681233838E1,-1.951044440E0,1.673834175E-1,9.188600540E0
3.683233838E1,-1.945700645E0,1.774582267E-1,9.181102753E0
3.685233838E1,-1.933499694E0,1.928577274E-1,9.189319611E0
3.687233682E1,-1.938977718E0,1.802929640E-1,9.190449715E0
3.689233682E1,-1.944101334E0,1.696339697E-1,9.202584267E0
3.691233838E1,-1.952777863E0,1.797662377E-1,9.195036888E0
3.693233682E1,-1.949684501E0,1.683889925E-1,9.189894676E0
3.695233838E1,-1.963609219E0,1.916702092E-1,9.186292648E0
3.697233682E1,-1.946610451E0,1.869009584E-1,9.196415901E0
3.699233838E1,-1.930281997E0,1.866327971E-1,9.185842514E0
3.701233682E1,-1.921270132E0,1.906263381E-1,9.188564301E0
3.703233682E1,-1.920484900E0,1.816720217E-1,9.196338654E0
3.705233838E1,-1.950211287E0,1.705054641E-1,9.187127113E0
3.707233682E1,-1.975101352E0,1.858283579E-1,9.190161705E0
3.709233682E1,-1.952634215E0,1.452322751E-1,9.198005676E0
3.711233682E1,-1.942003965E0,1.612159610E-1,9.191034317E0
3.713233838E1,-1.943287253E0,1.911434829E-1,9.198350906E0
3.715233838E1,-1.936851621E0,1.967076063E-1,9.204182625E0
3.717233682E1,-1.941458106E0,2.030474544E-1,9.202746391E0
3.719233838E1,-1.955286980E0,1.594825536E-1,9.178871155E0
3.721233838E1,-1.942061424E0,1.671535820E-1,9.195898056E0
3.723233838E1,-1.942722201E0,1.658128202E-1,9.191714287E0
3.725233682E1,-1.940394998E0,1.651137173E-1,9.196243286E0
3.727233838E1,-1.945011020E0,1.715493351E-1,9.200610161E0
3.729233994E1,-1.951705217E0,1.533725560E-1,9.205369949E0
3.731233682E1,-1.970073581E0,1.531618685E-1,9.188773155E0
3.733233838E1,-1.958744168E0,1.566669792E-1,9.191291809E0
3.735233838E1,-1.966903687E0,1.507580876E-1,9.176008224E0
3.737233838E1,-1.955392361E0,1.506814659E-1,9.192009926E0
3.739233838E1,-1.952672482E0,1.631121635E-1,9.206519127E0
3.741233838E1,-1.963992357E0,1.591569483E-1,9.193724632E0
3.743233682E1,-1.959156036E0,1.684655994E-1,9.198657036E0
3.745233682E1,-1.968253970E0,1.535449326E-1,9.188696861E0
3.747233682E1,-1.994207144E0,1.233109608E-1,9.198896408E0
3.749233838E1,-2.000298023E0,1.150461733E-1,9.182022095E0
3.751233682E1,-2.013149977E0,1.283004731E-1,9.183746338E0
3.753233682E1,-1.990577459E0,1.623556018E-1,9.192508698E0
3.755233838E1,-1.956848025E0,1.932024956E-1,9.170386314E0
3.757233682E1,-1.967181325E0,1.755811721E-1,9.184702873E0
3.759233838E1,-1.984199405E0,1.473487467E-1,9.196913719E0
3.761233682E1,-2.028530359E0,1.152185574E-1,9.188140869E0
3.763233838E1,-2.031547070E0,1.235886887E-1,9.172339439E0
3.765233838E1,-2.029564619E0,1.311926693E-1,9.165904045E0
3.767233682E1,-2.008850098E0,1.350329667E-1,9.178612709E0
3.769233838E1,-2.017296791E0,1.175648719E-1,9.181276321E0
3.771233682E1,-2.026174545E0,1.294880062E-1,9.168643951E0
3.773233682E1,-2.053075790E0,1.416122317E-1,9.157390594E0
3.775233682E1,-2.006944180E0,1.407886297E-1,9.179303169E0
3.777233838E1,-2.004942656E0,1.427806020E-1,9.194911957E0
3.779233838E1,-1.989591122E0,1.473200172E-1,9.194787979E0
3.781233682E1,-2.024718761E0,1.255040467E-1,9.173555374E0
3.783233838E1,-2.034621239E0,1.098555475E-1,9.176458359E0
3.785233838E1,-2.053401470E0,1.203613058E-1,9.165856361E0
3.787233838E1,-2.051208258E0,1.395532191E-1,9.160953522E0
3.789233682E1,-2.059367657E0,1.351095885E-1,9.172166824E0
3.791233838E1,-2.046180487E0,1.293443441E-1,9.179378510E0
3.793233682E1,-2.073167801E0,1.292677373E-1,9.162055016E0
3.795233682E1,-2.052951336E0,1.200931519E-1,9.157217979E0
3.797233682E1,-2.046324015E0,1.222000495E-1,9.175845146E0
3.799233838E1,-2.045174837E0,1.043871865E-1,9.163969040E0
3.801233838E1,-2.046726227E0,1.090894043E-1,9.163873672E0
3.803233682E1,-2.064950943E0,1.031996682E-1,9.165147781E0
3.805233838E1,-2.083079815E0,8.986875415E-2,9.149403572E0
3.807233682E1,-2.087973595E0,1.065323949E-1,9.142661095E0
3.809233838E1,-2.099322081E0,1.308862120E-1,9.155025482E0
3.811233682E1,-2.105901480E0,1.122305915E-1,9.170339584E0
3.813233838E1,-2.100605488E0,1.186566278E-1,9.154306412E0
3.815233838E1,-2.100346804E0,1.135905012E-1,9.148598671E0
3.817233682E1,-2.075581312E0,1.151515171E-1,9.175568581E0
3.819233838E1,-2.044255495E0,1.159942821E-1,9.156777382E0
3.821233682E1,-2.065851212E0,9.519345313E-2,9.152372360E0
3.823233682E1,-2.065832138E0,7.793605328E-2,9.136771202E0
3.825233682E1,-2.101256609E0,7.965987921E-2,9.149366379E0
3.827233838E1,-2.115621805E0,9.479122609E-2,9.167723656E0
3.829233838E1,-2.124164343E0,1.219989359E-1,9.162838936E0
3.831233682E1,-2.145204544E0,8.488880843E-2,9.149690628E0
3.833233838E1,-2.183310747E0,6.187574565E-2,9.138457298E0
3.835233838E1,-2.155700922E0,8.681374788E-2,9.138887405E0
3.837233838E1,-2.131356478E0,9.579679370E-2,9.155637741E0
3.839233682E1,-2.094342232E0,1.463144422E-1,9.147573471E0
3.841233838E1,-2.093834639E0,1.475785822E-1,9.160387993E0
3.843233682E1,-2.121827602E0,9.880391508E-2,9.151807785E0
3.845233682E1,-2.099609375E0,7.354029268E-2,9.147948265E0
3.847233682E1,-2.122718334E0,8.017702401E-2,9.137730598E0
3.849233838E1,-2.121501923E0,6.313988566E-2,9.148542404E0
3.851233682E1,-2.144984484E0,6.779421121E-2,9.139520645E0
3.853233838E1,-2.135522366E0,8.609548956E-2,9.141119003E0
3.855233838E1,-2.123991966E0,8.502288908E-2,9.119131088E0
3.857233838E1,-2.129536867E0,1.181490570E-1,9.138132095E0
3.859233838E1,-2.120113373E0,1.209263355E-1,9.147573471E0
3.861233682E1,-2.109454393E0,1.142225713E-1,9.158912659E0
3.863233838E1,-2.103047609E0,9.347920865E-2,9.161126137E0
3.865233838E1,-2.105116129E0,1.116942912E-1,9.165856361E0
3.867233682E1,-2.102932692E0,1.182352528E-1,9.161566734E0
3.869233838E1,-2.098029375E0,1.093958616E-1,9.148676872E0
3.871233682E1,-2.102721930E0,9.841126204E-2,9.156279564E0
3.873233682E1,-2.104637384E0,1.002883166E-1,9.149153709E0
3.875233682E1,-2.104771376E0,1.132936180E-1,9.155025482E0
3.877233838E1,-2.102262259E0,1.108419597E-1,9.152812004E0
3.879233838E1,-2.087542772E0,1.188098639E-1,9.145860672E0
3.881233682E1,-2.090425253E0,1.133127734E-1,9.161958694E0
3.883233838E1,-2.079230070E0,1.241537184E-1,9.162695885E0
3.885233838E1,-2.072526217E0,1.188673228E-1,9.161222458E0
3.887233838E1,-2.076491117E0,1.234450340E-1,9.169313431E0
3.889233682E1,-2.071185589E0,1.008916572E-1,9.157964706E0
3.891233838E1,-2.048555613E0,1.271704137E-1,9.160063744E0
3.893233682E1,-2.055785894E0,1.254178584E-1,9.153465271E0
3.895233838E1,-2.070792913E0,1.443320513E-1,9.169150352E0
3.897233682E1,-2.058726072E0,1.334144920E-1,9.182280540E0
3.899233838E1,-2.070917368E0,1.424071044E-1,9.173125267E0
3.901233682E1,-2.046467781E0,1.356363147E-1,9.162055016E0
3.903233682E1,-2.035483122E0,1.464293748E-1,9.177693367E0
3.905233838E1,-2.023540974E0,1.586110741E-1,9.171142578E0
3.907233838E1,-2.012202024E0,1.209071800E-1,9.169496536E0
3.909233682E1,-2.032064199E0,1.317002475E-1,9.189386368E0
3.911233682E1,-2.048670530E0,1.487278044E-1,9.167954445E0
3.913233838E1,-2.051256180E0,1.171722263E-1,9.183525085E0
3.915233838E1,-2.058735609E0,1.172584146E-1,9.168336868E0
3.917233682E1,-2.052357435E0,1.390264928E-1,9.169102669E0
3.919233838E1,-2.010937691E0,1.650562584E-1,9.193293571E0
3.921233682E1,-2.004818201E0,1.939207464E-1,9.167034149E0
3.923233838E1,-2.003525257E0,1.984314322E-1,9.157381058E0
3.925233682E1,-1.978778839E0,1.544260085E-1,9.169945717E0
3.927233838E1,-1.979219437E0,1.533821374E-1,9.178977013E0
3.929233838E1,-1.997664332E0,1.468124390E-1,9.192068100E0
3.931233682E1,-2.019451618E0,1.347169429E-1,9.187796593E0
3.933233838E1,-2.021548986E0,1.351000071E-1,9.181830406E0
3.935233838E1,-1.997654796E0,1.608520448E-1,9.181169510E0
3.937233682E1,-1.998143196E0,1.568202078E-1,9.162457466E0
3.939233682E1,-1.995787263E0,1.807143390E-1,9.173565865E0
3.941233838E1,-1.983538508E0,2.026835382E-1,9.193781853E0
3.943233838E1,-1.967171788E0,1.909998208E-1,9.196474075E0
3.945233682E1,-1.989179254E0,1.541770101E-1,9.186800957E0
3.947233682E1,-1.984486699E0,1.408843994E-1,9.198274612E0
3.949233838E1,-1.997405767E0,1.472721249E-1,9.182778358E0
3.951233682E1,-2.002443075E0,1.722580194E-1,9.179226875E0
3.953233682E1,-1.991583109E0,1.760504395E-1,9.192009926E0
3.955233838E1,-1.953093886E0,1.749395281E-1,9.185114861E0
3.957233682E1,-1.932139874E0,1.642326564E-1,9.185125351E0
3.959233838E1,-1.944704652E0,1.741063446E-1,9.192708969E0
3.961233682E1,-1.972946644E0,1.581418067E-1,9.188784599E0
3.963233838E1,-1.988183260E0,1.629110575E-1,9.185114861E0
3.965233838E1,-1.962632418E0,1.697105914E-1,9.192968369E0
3.967233682E1,-1.962565303E0,1.618480235E-1,9.194883347E0
3.969233838E1,-1.944302440E0,1.568010449E-1,9.197287560E0
3.971233838E1,-1.959529519E0,1.530373693E-1,9.201520920E0
3.973233682E1,-1.950326204E0,1.745277196E-1,9.196568489E0
3.975233682E1,-1.960113645E0,1.759546697E-1,9.190995216E0
3.977233838E1,-1.976202726E0,1.537747830E-1,9.180863380E0
3.979233838E1,-1.982456446E0,1.603061557E-1,9.178977013E0
3.981233682E1,-1.933202863E0,1.926087290E-1,9.189118385E0
3.983233994E1,-1.934103131E0,1.814326048E-1,9.197440147E0
3.985233838E1,-1.929764748E0,1.865082979E-1,9.183180809E0
3.987233682E1,-1.945470810E0,1.456823796E-1,9.182357788E0
3.989233682E1,-1.941266537E0,1.602104008E-1,9.177520752E0
3.991233838E1,-1.947884083E0,1.486033052E-1,9.187376022E0
3.993233682E1,-1.935012937E0,1.635239720E-1,9.201769829E0
3.995233682E1,-1.931603551E0,1.761174649E-1,9.196321487E0
3.997233682E1,-1.949837804E0,1.927523762E-1,9.207400322E0
3.999233838E1,-1.955162525E0,1.820933968E-1,9.154900551E0
4.001233838E1,-1.951485038E0,1.665310860E-1,9.207678795E0
4.003233682E1,-1.981010318E0,1.182639822E-1,9.201510429E0
4.005233838E1,-1.977936149E0,1.455291510E-1,9.165771484E0
4.007233682E1,-1.947012663E0,1.417941898E-1,9.196904182E0
4.009233838E1,-1.924823165E0,1.944379061E-1,9.180586815E0
4.011233682E1,-1.905324817E0,2.232449353E-1,9.188332558E0
4.013233838E1,-1.909768462E0,1.926661879E-1,9.197402000E0
4.015233838E1,-1.923424959E0,1.661671698E-1,9.198695183E0
4.017233682E1,-1.946964741E0,1.497429460E-1,9.178238869E0
4.019233994E1,-1.956302166E0,1.499344856E-1,9.191608429E0
4.021233838E1,-1.933001757E0,1.841907203E-1,9.205973625E0
4.023233682E1,-1.943833113E0,1.577204317E-1,9.197067261E0
4.025233682E1,-1.952174544E0,1.734838486E-1,9.175346375E0
4.027233838E1,-1.950029373E0,1.744511127E-1,9.178277016E0
4.029233838E1,-1.955286980E0,2.093873024E-1,9.172176361E0
4.031233682E1,-1.928002715E0,1.930301040E-1,9.176630020E0
4.033233838E1,-1.921452165E0,1.888642013E-1,9.206242561E0
4.035233838E1,-1.934342504E0,1.641273052E-1,9.192087173E0
4.037233838E1,-1.959337950E0,1.556709856E-1,9.192087173E0
4.039233682E1,-1.961253285E0,1.677377671E-1,9.174312592E0
4.041233838E1,-1.969929934E0,1.724208295E-1,9.197996140E0
4.043233682E1,-1.943890572E0,1.763664633E-1,9.191809654E0
4.045233682E1,-1.903514743E0,1.868530661E-1,9.187911034E0
4.047233682E1,-1.919029236E0,1.718270630E-1,9.203963280E0
4.049233838E1,-1.947319031E0,1.638112664E-1,9.194194794E0
4.051233682E1,-1.947874546E0,1.500302553E-1,9.188620567E0
4.053233682E1,-1.947692633E0,1.488523036E-1,9.177109718E0
4.055233838E1,-1.941257000E0,1.455100030E-1,9.193638802E0
4.057233682E1,-1.942837119E0,1.654010266E-1,9.196338654E0
4.059233838E1,-1.948659778E0,1.879831403E-1,9.187825203E0
4.061233682E1,-1.953658938E0,1.729188114E-1,9.205638885E0
4.063233838E1,-1.982130766E0,1.646157205E-1,9.182136536E0
4.065233682E1,-1.975618601E0,1.603923589E-1,9.185421944E0
4.067233682E1,-1.984850645E0,1.610435694E-1,9.175165176E0
4.069233994E1,-1.967286706E0,1.492353678E-1,9.193859100E0
4.071233838E1,-1.987723589E0,1.561881304E-1,9.181026459E0
4.073233838E1,-1.966702580E0,1.499919444E-1,9.198493958E0
4.075233682E1,-1.950651765E0,1.578736603E-1,9.194127083E0
4.077233838E1,-1.968493462E0,1.266341060E-1,9.188725471E0
4.079233838E1,-1.983931184E0,1.334336400E-1,9.196598053E0
4.081233682E1,-1.976988077E0,1.532001793E-1,9.185603142E0
4.083233838E1,-2.002615452E0,1.452705711E-1,9.180613518E0
4.085233838E1,-2.003151894E0,1.282334328E-1,9.175452232E0
4.087233682E1,-1.986181736E0,1.351000071E-1,9.190449715E0
4.089233838E1,-1.982044578E0,1.436425149E-1,9.196856499E0
4.091233838E1,-2.004262686E0,1.728996634E-1,9.199987411E0
4.093233682E1,-2.007853985E0,1.527596414E-1,9.176639557E0
4.095233838E1,-2.046994448E0,8.169015497E-2,9.169370651E0
4.097233682E1,-2.046688080E0,9.664913267E-2,9.153732300E0
4.099233838E1,-2.030349970E0,1.164443865E-1,9.175031662E0
4.101233682E1,-2.013676882E0,1.398501098E-1,9.183879852E0
4.103233682E1,-1.994858384E0,1.804557592E-1,9.191349983E0
4.105233838E1,-2.008447886E0,1.476168931E-1,9.180221558E0
4.107233682E1,-2.038873434E0,1.205911487E-1,9.163864136E0
4.109233838E1,-2.070649147E0,1.300817579E-1,9.162178993E0
4.111233838E1,-2.091430902E0,1.082562208E-1,9.168183327E0
4.113233838E1,-2.062365294E0,9.595960379E-2,9.169399261E0
4.115233682E1,-2.068714619E0,1.112154499E-1,9.159584045E0
4.117233682E1,-2.061953545E0,8.965805918E-2,9.163385391E0
4.119233838E1,-2.071118355E0,9.923487157E-2,9.152707100E0
4.121233838E1,-2.059808254E0,1.342476755E-1,9.154067039E0
4.123233838E1,-2.078540564E0,1.334432214E-1,9.168307304E0
4.125233682E1,-2.074345827E0,1.247091740E-1,9.177644730E0
4.127233838E1,-2.071281195E0,1.221904755E-1,9.166517258E0
4.129233838E1,-2.111159086E0,9.896671772E-2,9.173306465E0
4.131233682E1,-2.102750540E0,1.115697920E-1,9.157008171E0
4.133233838E1,-2.101821661E0,1.064653546E-1,9.152860641E0
4.135233838E1,-2.091516972E0,9.577763826E-2,9.151261330E0
