"Time (s)","Gyroscope x (rad/s)","Gyroscope y (rad/s)","Gyroscope z (rad/s)"
1.381838000E-2,3.588397056E-2,-1.132718660E-2,-2.146754880E-3
3.381838000E-2,1.195550524E-2,-7.155850180E-4,-1.249655709E-2
5.381681800E-2,5.567600485E-3,-1.415462047E-2,-2.272418700E-2
7.381838000E-2,4.768239334E-2,-1.445132587E-2,-2.925171889E-2
9.381681800E-2,9.786061198E-2,2.007128671E-3,-2.956587821E-2
1.138277550E-1,8.583529294E-2,2.172934823E-2,-1.923352852E-2
1.338199430E-1,5.989969894E-2,2.110103145E-2,-3.872885555E-2
1.538168180E-1,4.005530477E-2,2.499311417E-2,-4.567526653E-2
1.738183800E-1,3.686135262E-2,1.485275198E-2,-4.066617042E-2
1.938183800E-1,3.508111695E-3,4.239404574E-2,-4.122467712E-2
2.138199430E-1,-9.337511845E-3,7.333873212E-2,-4.302236438E-2
2.338168180E-1,-4.886921961E-3,7.866198570E-2,-3.614576906E-2
2.538183800E-1,4.921828397E-3,3.689625859E-2,-4.298745841E-2
2.738230680E-1,4.295255244E-2,3.490658492E-5,-6.199409440E-2
2.938183800E-1,4.495968297E-2,-1.199041214E-2,-6.112143025E-2
3.138199430E-1,5.427973811E-3,1.884955564E-3,-4.274311289E-2
3.338199430E-1,-1.904154196E-2,4.066617228E-3,-5.684537441E-2
3.538183800E-1,-3.979350906E-3,5.372123420E-2,-1.174257547E-1
3.738199430E-1,5.398303270E-2,1.372003257E-1,-1.517214775E-1
3.938183800E-1,8.560840040E-2,1.269377917E-1,-1.538333148E-1
4.138168180E-1,7.232644409E-2,5.934119597E-2,-1.404990107E-1
4.338183800E-1,8.400269598E-2,-1.206022501E-2,-1.187871099E-1
4.538168180E-1,8.325220644E-2,-3.274237737E-2,-1.302015632E-1
4.738215050E-1,8.906415105E-2,-1.364847459E-2,-1.724734306E-1
4.938168180E-1,1.076868176E-1,4.426154867E-2,-2.146056890E-1
5.138168180E-1,9.852383286E-2,7.997098565E-2,-2.116037160E-1
5.338215050E-1,4.125958309E-2,6.248278543E-2,-1.849874407E-1
5.538183800E-1,-2.670353744E-3,3.872885555E-2,-1.480911821E-1
5.738168180E-1,-8.342674002E-3,4.305727407E-2,-1.281071603E-1
5.938168180E-1,-1.413716655E-2,4.822344705E-2,-1.133940443E-1
6.138183800E-1,-1.450368576E-2,5.473352596E-2,-1.090830788E-1
6.338168180E-1,7.173303049E-3,4.303981736E-2,-1.175828278E-1
6.538168180E-1,2.371902391E-2,2.619739249E-2,-1.252448261E-1
6.738183800E-1,2.797762863E-2,1.780235791E-3,-1.123293936E-1
6.938183800E-1,7.016223390E-3,-1.118756086E-2,-8.026769012E-2
7.138183800E-1,0.000000000E0,-2.652900526E-3,-4.632103816E-2
7.338199430E-1,-2.296853252E-2,4.188790335E-4,-2.228785492E-2
7.538183800E-1,-7.288494706E-2,-6.632251316E-4,-1.410226058E-2
7.738168180E-1,-7.737044245E-2,4.756022245E-2,-2.898991853E-2
7.938183800E-1,-6.688101590E-2,1.200262904E-1,-2.986258268E-2
8.138199430E-1,-8.330456167E-2,1.403419226E-1,-9.389871731E-3
8.338215050E-1,-1.294510663E-1,9.030333161E-2,-2.460914198E-3
8.538168180E-1,-1.427504718E-1,6.627015024E-2,-1.535889693E-2
8.738168180E-1,-1.453335732E-1,8.991936594E-2,-2.340486459E-2
8.938199430E-1,-1.315105557E-1,1.133067757E-1,-2.528982051E-2
9.138183800E-1,-9.995500743E-2,1.328370124E-1,-3.171263263E-2
9.338277550E-1,-7.593927532E-2,1.281246245E-1,-2.597049996E-2
9.538168180E-1,-9.450957924E-2,8.915141970E-2,-1.137954649E-2
9.738183800E-1,-1.271297783E-1,4.539601505E-2,-4.974188283E-3
9.938183800E-1,-1.199041158E-1,5.825908855E-2,-1.555088349E-2
1.013816818E0,-9.124581516E-2,9.096655995E-2,-2.420771681E-2
1.033819943E0,-8.290313929E-2,1.081929579E-1,-3.169517964E-2
1.053818380E0,-8.948303014E-2,1.132718697E-1,-2.935643867E-2
1.073818380E0,-1.143714264E-1,1.083151326E-1,-2.143264376E-2
1.093821505E0,-1.363276690E-1,1.087863743E-1,-1.870992966E-2
1.113818380E0,-1.406211704E-1,1.236391217E-1,-1.675515994E-2
1.133819943E0,-1.175828278E-1,1.270425171E-1,-3.932226822E-2
1.153818380E0,-1.028697044E-1,1.300619394E-1,-6.904522330E-2
1.173818380E0,-1.114043668E-1,1.270250678E-1,-7.098253816E-2
1.193818380E0,-1.304284483E-1,1.143714264E-1,-4.127703607E-2
1.213818380E0,-1.442514658E-1,7.145377994E-2,-1.832595654E-2
1.233816818E0,-1.487893164E-1,5.909684673E-2,-2.457423508E-2
1.253818380E0,-1.114741787E-1,8.349654824E-2,-3.284709528E-2
1.273818380E0,-9.738937020E-2,1.056796834E-1,-4.218460619E-2
1.293818380E0,-1.318770796E-1,9.747663885E-2,-3.433062509E-2
1.313816818E0,-1.714262366E-1,9.583602846E-2,-1.565560326E-2
1.333818380E0,-1.855983138E-1,9.960594028E-2,1.370083448E-2
1.353816818E0,-2.128428966E-1,1.047721133E-1,2.401573025E-2
1.373818380E0,-2.307325304E-1,1.318596303E-1,3.839724232E-4
1.393819943E0,-2.455329150E-1,1.935395598E-1,-2.464404888E-2
1.413816818E0,-2.733360231E-1,2.436130494E-1,-1.583013684E-2
1.433818380E0,-3.093596101E-1,2.625324130E-1,6.597344764E-3
1.453818380E0,-3.520503640E-1,2.603158653E-1,1.658062823E-2
1.473818380E0,-3.460813463E-1,2.833367586E-1,-9.581857361E-3
1.493821505E0,-3.116459846E-1,3.208962381E-1,-4.323180392E-2
1.513816818E0,-2.965663373E-1,3.333055377E-1,-5.127777159E-2
1.533852755E0,-2.509608865E-1,3.150668442E-1,-3.729768470E-2
1.553818380E0,-2.031214237E-1,2.414314002E-1,-1.963495463E-2
1.573818380E0,-2.110626698E-1,1.515294909E-1,-2.003637888E-2
1.593818380E0,-1.984439343E-1,8.627162129E-2,-1.839577034E-2
1.613818380E0,-1.679530293E-1,7.579965144E-2,-1.089085452E-2
1.633818380E0,-1.220508739E-1,7.658504695E-2,-4.852015525E-3
1.653816818E0,-1.031140536E-1,6.914994121E-2,-8.412486874E-3
1.673819943E0,-9.051277488E-2,6.796312332E-2,-2.213077433E-2
1.693818380E0,-6.330309063E-2,6.002187356E-2,-2.497566119E-2
1.713818380E0,-4.886921868E-2,3.602359444E-2,-1.656317525E-2
1.733819943E0,-3.677408770E-2,3.056071512E-2,-1.572541706E-2
1.753818380E0,-7.993607782E-3,3.710569814E-2,-1.195550524E-2
1.773818380E0,3.263765713E-3,2.518510073E-2,6.649704650E-3
1.793818380E0,-5.480333697E-3,-5.166174378E-3,8.447393775E-3
1.813818380E0,-9.197885171E-3,-2.008873969E-2,1.972222002E-3
1.833818380E0,-4.607669078E-3,-1.371828746E-2,-3.857177682E-3
1.853824630E0,-1.340412907E-2,3.089232836E-3,-5.654866807E-3
1.873818380E0,-1.806415804E-2,1.864011586E-2,-2.131047100E-2
1.893819943E0,-1.509709843E-2,3.733259439E-2,-2.904227935E-2
1.913818380E0,-6.806783844E-3,4.569271952E-2,-1.973967440E-2
1.933819943E0,-6.963863503E-3,3.056071512E-2,5.532693584E-3
1.953816818E0,-4.567526653E-2,-3.787364578E-3,2.600540640E-3
1.973818380E0,-8.126252890E-2,-9.913469665E-3,-6.003932562E-3
1.993818380E0,-8.836601675E-2,2.420771681E-2,-9.843656793E-3
2.013818380E0,-7.979645580E-2,7.794640213E-2,-1.019272301E-2
2.033819943E0,-8.761552721E-2,1.676563323E-1,-2.284635976E-2
2.053818380E0,-1.246688664E-1,2.199289352E-1,-3.015928902E-2
2.073818380E0,-1.711818874E-1,1.981297731E-1,-3.614576906E-2
2.093816818E0,-1.918116808E-1,1.538507789E-1,-4.434881732E-2
2.113818380E0,-1.845162064E-1,1.276708394E-1,-4.487241432E-2
2.133818380E0,-1.549328715E-1,9.946631640E-2,-3.127630055E-2
2.153816818E0,-1.239009202E-1,6.506587565E-2,-1.633628085E-2
2.173819943E0,-8.080874383E-2,2.544690110E-2,-1.883210242E-2
2.193819943E0,-5.707226694E-2,-2.879793290E-3,-4.244640842E-2
2.213816818E0,-5.249950290E-2,-2.368411794E-2,-5.557128415E-2
2.233816818E0,-4.050909355E-2,-3.251548484E-2,-4.696680978E-2
2.253818380E0,-3.621558100E-2,-3.312635049E-2,-4.419173673E-2
2.273818380E0,-2.110103145E-2,-3.356268257E-2,-4.970697686E-2
2.293818380E0,-1.206022501E-2,-2.263692021E-2,-4.220206290E-2
2.313816818E0,-4.537856206E-3,-1.900663599E-2,-2.769837528E-2
2.333818380E0,-1.729621366E-2,-2.747148275E-2,-2.708750963E-2
2.353819943E0,-3.174753860E-2,-2.858849242E-2,-2.923426405E-2
2.373816818E0,-3.448770568E-2,-4.904375412E-3,-3.462733328E-2
2.393819943E0,-2.574360557E-2,8.045967668E-3,-1.637118869E-2
2.413818380E0,-2.918190509E-2,-4.502949305E-3,-6.457717973E-4
2.433818380E0,-3.872885555E-2,-2.515019476E-2,1.146681327E-2
2.453816818E0,-5.454153940E-2,-2.501056902E-2,9.965829551E-3
2.473823068E0,-4.392993823E-2,-3.036872949E-3,-8.011061698E-3
2.493818380E0,-2.881538495E-2,1.500983164E-2,-2.089159191E-2
2.513816818E0,-3.583160788E-2,1.300270297E-2,-2.028072625E-2
2.533818380E0,-6.525786221E-2,3.822271014E-3,-3.019419499E-3
2.553816818E0,-8.244935423E-2,-1.239183708E-3,1.275835652E-2
2.573818380E0,-9.313076735E-2,1.228711754E-2,1.720894687E-2
2.593816818E0,-1.199041158E-1,5.585053563E-2,2.471386269E-2
2.613818380E0,-1.723861694E-1,1.618269235E-1,3.150319308E-2
2.633818380E0,-2.360557765E-1,2.737025321E-1,4.293509759E-3
2.653818380E0,-3.127455413E-1,3.979176283E-1,-2.101376466E-2
2.673819943E0,-4.125260115E-1,5.361477137E-1,-1.284562331E-2
2.693818380E0,-5.042954087E-1,6.793170571E-1,1.118756086E-2
2.713818380E0,-5.718047619E-1,1.014839172E0,2.071705833E-2
2.733816818E0,-7.550294399E-1,1.755661607E0,-1.923352852E-2
2.753818380E0,-1.053951979E0,2.686288595E0,-1.009323895E-1
2.773818380E0,-1.355632186E0,3.157841682E0,-9.496336430E-2
2.793818380E0,-1.659214735E0,3.093386650E0,8.524188399E-2
2.813818380E0,-1.886159897E0,2.912238836E0,3.467794657E-1
2.833818380E0,-1.994108438E0,3.123266697E0,4.983264208E-1
2.853816818E0,-2.179636955E0,3.209450960E0,6.143907905E-1
2.873816818E0,-2.516310930E0,2.938785315E0,7.370001674E-1
2.893819943E0,-2.696516275E0,2.710862875E0,8.104611039E-1
2.913818380E0,-2.756730080E0,2.305527687E0,8.399047852E-1
2.933826193E0,-2.571131706E0,2.021388054E0,8.677602410E-1
2.953816818E0,-2.291530132E0,2.016186953E0,8.159588575E-1
2.973818380E0,-2.491981030E0,1.714925647E0,7.223045230E-1
2.993818380E0,-2.904803753E0,1.171272993E0,7.538949847E-1
3.013816818E0,-2.885221243E0,6.063972116E-1,7.082022429E-1
3.033818380E0,-2.679499388E0,7.596894503E-1,5.047143102E-1
3.053818380E0,-2.467441797E0,7.925714850E-1,3.792076707E-1
3.073816818E0,-2.557518244E0,1.637642384E-1,3.390825689E-1
3.093816818E0,-2.283501625E0,6.581636518E-2,7.192502171E-2
3.113818380E0,-1.773219585E0,5.954190493E-1,-3.872885704E-1
3.133819943E0,-1.459234834E0,8.644266725E-1,-7.280117273E-1
3.153816818E0,-1.270913839E0,6.751456857E-1,-7.819074988E-1
3.173818380E0,-1.305663347E0,1.331511736E-1,-6.998420954E-1
3.193818380E0,-1.482151031E0,1.641482115E-1,-8.968723416E-1
3.213816818E0,-1.363416314E0,2.060535699E-1,-1.023600698E0
3.233824630E0,-1.369106054E0,8.414581418E-1,-9.095085263E-1
3.253818380E0,-7.910879254E-1,6.239028573E-1,-3.632553816E-1
3.273818380E0,2.952922583E-1,1.333972573E0,-1.192583442E-1
3.293821505E0,1.793151200E-1,1.951470137E0,-8.178612590E-2
3.313816818E0,-5.511749908E-2,1.682235599E0,-3.515093029E-1
3.333819943E0,6.161012221E-3,5.437747836E-1,-5.499706864E-1
3.353816818E0,-2.010793835E-1,-6.505191326E-1,-7.682415843E-1
3.373816818E0,-4.976980984E-1,-1.013582468E0,-7.799178362E-1
3.393819943E0,-3.836582601E-1,-9.112014771E-1,-7.357261181E-1
3.413818380E0,-8.239699155E-2,-6.054023504E-1,-7.346439958E-1
3.433816818E0,2.617993741E-4,-5.547180176E-1,-5.718571544E-1
3.453816818E0,-1.393296272E-1,-6.099053025E-1,-3.839549720E-1
3.473818380E0,-2.429149300E-1,-4.755498469E-1,-3.379655480E-1
3.493819943E0,-1.953896135E-1,-1.062905509E-2,-4.947834015E-1
3.513816818E0,-1.855285019E-1,6.243216991E-1,-6.247929931E-1
3.533818380E0,-1.993340552E-1,1.503234625E0,-6.367484927E-1
3.553818380E0,-2.291093767E-1,2.834292412E0,-8.504116535E-1
3.573818380E0,-1.362578571E-1,4.860759258E0,-1.213265657E0
3.593816818E0,2.916445136E-1,5.225481033E0,-1.373102903E0
3.613818380E0,9.401913881E-1,1.721418262E0,-9.512568116E-1
3.633816818E0,7.675085068E-1,-2.225992978E-1,-1.918640435E-1
3.653818380E0,5.115734339E-1,-7.328811884E-1,1.294685304E-1
3.673818380E0,4.076216519E-1,-4.284957945E-1,9.002408385E-2
3.693821505E0,2.275211215E-1,3.970973194E-1,-2.239082903E-1
3.713818380E0,8.395033330E-2,7.671943903E-1,-4.144807756E-1
3.733816818E0,7.515387982E-2,3.014008999E-1,-4.436103404E-1
3.753823068E0,-1.466076542E-2,2.345547974E-1,-2.273116857E-1
3.773816818E0,1.039518118E-1,5.045921206E-1,-4.866676033E-1
3.793818380E0,2.642253935E-1,8.515112400E-1,-6.135879755E-1
3.813818380E0,2.973517478E-1,5.011014938E-1,-6.506238580E-1
3.833818380E0,1.445307136E-1,2.906147838E-1,-7.223743200E-1
3.853819943E0,1.618792862E-1,3.354522884E-1,-6.170611382E-1
3.873816818E0,1.300968379E-1,3.678804934E-1,-6.109001637E-1
3.893818380E0,1.037947312E-1,4.755149484E-1,-7.282909751E-1
3.913816818E0,1.513898522E-1,4.948880970E-1,-8.532391191E-1
3.933816818E0,5.761331692E-2,5.117828846E-1,-9.059829712E-1
3.953824630E0,1.387536712E-2,2.684141994E-1,-8.420864344E-1
3.973818380E0,1.252273768E-1,-1.015956178E-1,-8.255232573E-1
3.993818380E0,1.921782047E-1,-1.964542568E-1,-8.354542255E-1
4.013816818E0,2.686061561E-1,-2.682571113E-1,-6.740286946E-1
4.033818380E0,3.740938604E-1,-3.663271666E-1,-3.511078954E-1
4.053821505E0,3.644770980E-1,-2.361779511E-1,-1.846383810E-1
4.073818380E0,3.834488392E-1,-1.172337681E-1,-2.101201862E-1
4.093816818E0,3.855432272E-1,-3.258529603E-1,-3.053278923E-1
4.113818380E0,4.182332456E-1,-6.301336884E-1,-2.094395161E-1
4.133816818E0,3.409500718E-1,-6.877470016E-1,-1.783202887E-1
4.153823068E0,3.717202246E-1,-4.472231567E-1,-2.500009537E-1
4.173818380E0,3.011216521E-1,1.299572140E-1,-1.239009202E-1
4.193818380E0,2.860071063E-1,1.355073601E-1,-8.993681520E-2
4.213816818E0,2.205747068E-1,4.386012256E-2,-2.942625061E-2
4.233816818E0,2.395115346E-1,-1.288751066E-1,-6.754423957E-3
4.253818380E0,1.630835682E-1,-1.912357211E-1,-4.232423380E-2
4.273816818E0,1.555786431E-1,-5.075417459E-2,-1.183333248E-2
4.293818380E0,1.489289403E-1,-7.918559015E-2,-3.817034885E-2
4.313816818E0,8.897688240E-2,-1.604830176E-1,-1.083674952E-1
4.333818380E0,7.483971864E-2,-1.149473861E-1,-7.166321576E-2
4.353818380E0,9.728465229E-2,-1.164832711E-1,6.475171540E-3
4.373816818E0,6.044075266E-2,-1.919862181E-1,1.977458037E-2
4.393818380E0,5.117305368E-2,-1.436929554E-1,1.295034308E-2
4.413816818E0,4.352851212E-2,-6.764896214E-2,-1.780235791E-3
4.433816818E0,9.086184204E-2,1.555088349E-2,4.429645464E-2
4.453816818E0,7.023204863E-2,-9.239772707E-2,9.983283468E-3
4.473818380E0,6.220353395E-2,-1.384569705E-1,-1.221730490E-4
4.493818380E0,7.723081857E-2,-4.883431271E-2,-5.288347602E-3
4.513816818E0,1.064127237E-1,-7.323401421E-2,-1.143190637E-2
4.533818380E0,1.090656221E-1,-4.984660447E-2,4.834562074E-3
4.553818380E0,1.209687665E-1,4.673991725E-2,7.628834248E-2
4.573816818E0,1.454382837E-1,1.027126238E-1,4.956734926E-2
4.593816818E0,1.631010175E-1,5.530948564E-2,3.265510872E-2
4.613818380E0,1.518436372E-1,3.436553106E-2,3.469714522E-2
4.633816818E0,8.737118542E-2,3.193952609E-3,1.101302728E-2
4.653816818E0,5.482079089E-2,-4.640830308E-2,-1.890191622E-2
4.673824630E0,4.874704406E-2,-1.580395699E-1,-6.056292448E-3
4.693818380E0,5.738642439E-2,-1.992293298E-1,5.585053586E-4
4.713816818E0,3.659955412E-2,-1.166752577E-1,-9.075712413E-3
4.733816818E0,1.338667516E-2,3.841469809E-2,1.768018492E-2
4.753818380E0,-4.588470608E-2,-1.768018492E-2,9.227555990E-2
4.773818380E0,-1.175653785E-1,-1.261873096E-1,1.382300705E-1
4.793818380E0,-1.826312542E-1,-1.720894687E-2,1.106538773E-1
4.813818380E0,-1.758419275E-1,1.881988496E-1,1.183333248E-1
4.833818380E0,-1.270774156E-1,2.080606967E-1,1.476373971E-1
4.853818380E0,-1.259255111E-1,5.832890421E-2,1.370956153E-1
4.873816818E0,-7.223917544E-2,7.531096041E-2,4.776966199E-2
4.893818380E0,2.822197415E-2,1.798038185E-1,-5.873033032E-2
4.913816818E0,1.187871099E-1,1.476373971E-1,-1.438325793E-1
4.933818380E0,1.814793348E-1,7.942993194E-2,-1.774127185E-1
4.953816818E0,2.653424144E-1,6.070255116E-2,-2.542246580E-1
4.973818380E0,3.096039593E-1,8.848818950E-3,-3.089407384E-1
4.993818380E0,2.958333194E-1,-8.600982279E-2,-3.013485372E-1
5.013816818E0,1.948834658E-1,-1.014210805E-1,-1.773778051E-1
5.033819943E0,5.155702680E-2,-1.293638051E-1,-5.564109609E-2
5.053816818E0,-4.525638744E-2,-1.103048120E-2,4.221951589E-2
5.073823068E0,-4.845033959E-2,1.173733920E-1,6.316346675E-2
5.093816818E0,-4.005530477E-2,1.391725540E-1,6.747443229E-2
5.113818380E0,-6.220353395E-2,2.659707367E-1,3.600614145E-2
5.133821505E0,-7.822565734E-2,4.308170676E-1,3.473205119E-2
5.153818380E0,-8.829620481E-2,3.006329536E-1,8.976228535E-2
5.173818380E0,-8.834856749E-2,7.670722157E-2,1.771160066E-1
5.193818380E0,-5.181882530E-2,1.090307161E-1,1.981472224E-1
5.213818380E0,2.049365640E-1,-2.289697379E-1,-4.619013965E-1
5.233816818E0,-3.267256320E-1,-1.068158984E0,-1.118756011E-1
5.253818380E0,-8.524188399E-2,-8.330456167E-2,-4.277801886E-2
5.273818380E0,8.592256159E-2,1.663473248E-1,-8.424704522E-2
5.293818380E0,-5.763076991E-2,6.817255914E-2,-7.808603346E-2
5.313816818E0,-1.717403904E-2,-1.283864230E-1,-1.850049011E-3
5.333818380E0,4.841543362E-2,-8.724901080E-2,-3.516838327E-2
5.353818380E0,-4.363323096E-4,2.042035200E-2,-4.139921069E-2
5.373816818E0,1.935570128E-2,1.078089848E-1,-4.476769641E-2
5.393819943E0,2.989749052E-2,8.381070942E-2,-3.865904361E-2
5.413818380E0,3.295181692E-2,5.907939374E-2,-2.935643867E-2
5.433824630E0,2.832669392E-2,4.419173673E-2,-1.123992074E-2
5.453816818E0,3.248057887E-2,4.749041051E-2,-7.592182141E-3
5.473818380E0,1.104793418E-2,7.435102481E-3,1.204277202E-2
5.493818380E0,4.394739121E-2,6.061528623E-2,1.623156248E-3
5.513816818E0,6.307619810E-2,8.232717961E-2,-4.380776547E-3
5.533819943E0,3.635520861E-2,1.994911395E-2,-3.312635049E-2
5.553818380E0,6.422811653E-3,1.925098151E-2,-5.213298276E-2
5.573818380E0,1.333431527E-2,5.311036855E-2,-4.635594413E-2
5.593824630E0,2.776818909E-2,4.667010531E-2,-3.890338913E-2
5.613818380E0,6.103416532E-2,8.414231986E-2,-4.138175771E-2
5.633818380E0,8.901178837E-3,-1.382300723E-2,-3.762929887E-2
5.653818380E0,5.822418258E-2,4.993386939E-2,1.511455141E-2
5.673818380E0,5.386086181E-2,2.947861142E-2,5.543165654E-2
5.693819943E0,4.164355621E-2,-2.024581889E-3,2.452187613E-2
5.713818380E0,5.775294453E-2,-1.965240687E-1,-2.998475730E-2
5.733816818E0,9.738937020E-3,1.135336682E-1,1.605702913E-3
5.753818380E0,4.042182490E-2,2.117258906E-1,1.736602560E-2
5.773818380E0,7.586946338E-2,2.342231758E-2,1.994911395E-2
5.793819943E0,3.558726236E-2,-1.038994491E-1,1.399754081E-2
5.813818380E0,3.492403775E-2,-4.324925691E-2,3.752457909E-3
5.833818380E0,4.115486518E-2,2.213077433E-2,1.762782573E-3
5.853818380E0,3.644247353E-2,1.305506285E-2,-1.096066739E-2
5.873816818E0,3.054326214E-2,2.546435408E-2,-1.169370580E-2
5.893826193E0,2.783800103E-2,3.089232743E-2,-2.132792398E-2
5.913818380E0,2.323033288E-2,4.356341809E-2,-2.249729447E-2
5.933816818E0,2.281145379E-2,5.513495207E-2,-3.174753860E-2
5.953816818E0,2.101376466E-2,5.398303270E-2,-3.492403775E-2
5.973818380E0,1.939060725E-2,4.949753731E-2,-3.761184588E-2
5.993818380E0,1.213003788E-2,3.605850041E-2,-3.710569814E-2
6.013818380E0,2.398082428E-2,5.852089077E-2,-3.867649660E-2
6.033818380E0,3.242821619E-2,7.733553648E-2,-4.399975017E-2
6.053818380E0,3.614576906E-2,6.991788745E-2,-5.263913050E-2
6.073818380E0,3.436553106E-2,4.073598608E-2,-5.562364310E-2
6.093816818E0,2.268928103E-2,1.699950732E-2,-5.019566789E-2
6.113818380E0,1.443387289E-2,2.277654596E-2,-4.991641641E-2
6.133818380E0,6.754423957E-3,2.494075522E-2,-4.520402849E-2
6.153818380E0,9.372417815E-3,2.188642882E-2,-3.450515866E-2
6.173818380E0,1.563815027E-2,6.143558770E-3,-3.260274976E-2
6.193818380E0,2.026327327E-2,-9.494591504E-3,-3.583160788E-2
6.213818380E0,1.268854365E-2,-1.026253588E-2,-4.085815698E-2
6.233816818E0,6.736970972E-3,7.487462368E-3,-4.092797264E-2
6.253818380E0,3.455751808E-3,6.492624991E-3,-3.487167880E-2
6.273818380E0,6.143558770E-3,-1.762782573E-3,-3.314380348E-2
6.293818380E0,4.817108624E-3,-1.026253588E-2,-3.270747140E-2
6.313816818E0,5.637413356E-3,5.864306353E-3,-3.070034087E-2
6.333818380E0,1.605702913E-3,2.131047100E-2,-2.918190509E-2
6.353818380E0,1.336922217E-2,8.866272867E-3,-3.262020275E-2
6.373818380E0,7.051130291E-3,4.433136433E-3,-5.251695588E-2
6.393819943E0,4.380776547E-3,1.745329238E-3,-3.644247353E-2
6.413818380E0,2.391101094E-3,1.274090353E-2,-3.920009360E-2
6.433816818E0,-2.460914198E-3,-5.201081280E-3,-2.799508162E-2
6.453816818E0,1.134464052E-3,-4.817108624E-3,-2.583087236E-2
6.473818380E0,6.178465672E-3,1.954768784E-2,-4.160865024E-2
6.493818380E0,-1.832595677E-3,-4.014257283E-4,-5.380849913E-2
6.513816818E0,-2.094394993E-3,-5.016076192E-2,-4.544837400E-2
6.533819943E0,1.338667516E-2,-1.089085452E-2,-2.132792398E-2
6.553818380E0,5.352924764E-2,2.841396071E-2,-4.796164855E-2
6.573816818E0,2.893755957E-2,-1.425934024E-2,-4.797910154E-2
6.593816818E0,7.347836159E-3,-6.424556673E-2,-9.669124149E-3
6.613818380E0,1.549852360E-2,-2.776818909E-2,-1.274090353E-2
6.633818380E0,1.137954649E-2,-4.974188283E-3,2.890265174E-2
6.653816818E0,1.422443334E-2,6.597344764E-3,1.694714651E-2
6.673818380E0,1.926843449E-2,2.670353744E-3,-1.174606569E-2
6.693818380E0,1.987930015E-2,1.500983164E-2,-3.338814899E-2
6.713818380E0,2.583087236E-2,2.754129469E-2,-4.593706504E-2
6.733816818E0,1.619665511E-2,1.408480667E-2,-2.940879762E-2
6.753818380E0,1.432915311E-2,-8.936085738E-3,-4.625122622E-2
6.773818380E0,6.771877408E-3,3.078760765E-2,-5.375614017E-2
6.793818380E0,1.776745170E-2,5.546656251E-2,-5.782275647E-2
6.813818380E0,7.539822254E-3,4.813618213E-2,-3.918264061E-2
6.833818380E0,-3.438298590E-3,7.442083955E-2,-3.686135262E-2
6.853818380E0,3.298672382E-3,1.138827354E-1,-4.115486518E-2
6.873816818E0,4.712388851E-3,1.078264415E-1,-3.281218931E-2
6.893819943E0,6.754423957E-3,6.169738993E-2,-9.285151958E-3
6.913818380E0,1.600466855E-2,1.670280099E-2,1.640609466E-3
6.933818380E0,5.480333697E-3,1.078613475E-2,-6.981316983E-5
6.953816818E0,-3.420845373E-3,1.096066739E-2,9.424777818E-4
6.973818380E0,-1.905899495E-2,1.530653704E-2,1.073377486E-2
6.993818380E0,-1.675515994E-2,8.534659632E-3,6.283185445E-3
7.013816818E0,-9.721484035E-3,3.630284918E-3,-1.221730490E-4
7.033818380E0,-4.066617228E-3,7.871435024E-3,5.759586347E-4
7.053818380E0,-1.103048120E-2,8.325220086E-3,-6.457717973E-4
7.073818380E0,5.061454722E-4,3.979350906E-3,-2.111848444E-2
7.093816818E0,1.083849464E-2,2.303834632E-2,-1.841322333E-2
7.113818380E0,4.101523664E-3,2.534218132E-2,-1.586504281E-2
7.133818380E0,1.221730490E-3,8.779006079E-3,-2.298598550E-2
7.153816818E0,9.948377265E-4,1.171115879E-2,-2.309070528E-2
7.173816818E0,4.258603323E-3,1.059414819E-2,-1.946042106E-2
7.193818380E0,2.391101094E-3,-7.487462368E-3,-1.898918301E-2
7.213816818E0,2.094395168E-4,-1.422443334E-2,-3.033382259E-2
7.233816818E0,2.548180753E-3,-2.865830623E-2,-3.274237737E-2
7.253818380E0,8.168140426E-3,-2.158972248E-2,-3.075270168E-2
7.273816818E0,-2.897246508E-3,-1.780235767E-2,-2.127556317E-2
7.293818380E0,-1.090830751E-2,3.351032268E-3,-1.302015595E-2
7.313816818E0,-8.203047328E-3,1.249655709E-2,-1.350884791E-2
7.333818380E0,-6.300638430E-3,1.024508290E-2,-9.861109778E-3
7.353818380E0,-1.160643995E-2,1.071632188E-2,-2.321287990E-3
7.373816818E0,-2.569124661E-2,7.365289610E-3,-4.014257342E-3
7.393819943E0,-4.064871743E-2,1.884955564E-3,-9.093165398E-3
7.413816818E0,-4.454080388E-2,1.043706853E-2,-7.696901914E-3
7.433816818E0,-4.211479425E-2,3.417354822E-2,5.567600485E-3
7.453816818E0,-4.307472706E-2,3.391174600E-2,1.698205434E-2
7.473818380E0,-4.972442985E-2,3.193952609E-3,1.539380383E-2
7.493818380E0,-5.389576778E-2,-1.509709843E-2,9.581857361E-3
7.513816818E0,-5.605997518E-2,-4.153883550E-3,1.745329238E-3
7.533818380E0,-4.036946595E-2,4.448844120E-2,-1.518436475E-3
7.553818380E0,-3.389429301E-2,6.445501000E-2,-4.590216093E-3
7.573816818E0,-4.530874640E-2,3.675663471E-2,-7.784168236E-3
7.593816818E0,-7.265805453E-2,-8.150687441E-3,-1.085594762E-2
7.613818380E0,-9.162978828E-2,-4.176572710E-2,-8.831365965E-3
7.633818380E0,-8.402015269E-2,-1.034980267E-2,-8.970992640E-3
7.653816818E0,-3.405137360E-2,5.337216705E-2,-3.665191354E-3
7.673816818E0,-6.457717973E-4,3.508111835E-2,-6.387905218E-3
7.693818380E0,-1.113520097E-2,-7.860963047E-2,-1.062905509E-2
7.713818380E0,-2.478367463E-2,-1.429075599E-1,-1.830850355E-2
7.733816818E0,-4.583234712E-2,-1.638340503E-1,-2.998475730E-2
7.753818380E0,-3.426081315E-2,-1.569574624E-1,-3.583160788E-2
7.773816818E0,-2.274163999E-2,-1.124341115E-1,-3.063052893E-2
7.793818380E0,-1.071632188E-2,-4.583234712E-2,-1.302015595E-2
7.813818380E0,-7.714355364E-3,-4.265584797E-2,1.242674422E-2
7.833818380E0,-1.740093343E-2,-9.412560612E-2,3.269001842E-2
7.853818380E0,-2.389355749E-2,-1.384569705E-1,3.738495335E-2
7.873818380E0,-5.356415361E-2,-1.360833198E-1,2.567379363E-2
7.893819943E0,-6.625270098E-2,-1.143016145E-1,7.592182141E-3
7.913818380E0,-4.993386939E-2,-9.208357334E-2,-1.727875904E-3
7.933818380E0,-3.312635049E-2,-8.480554819E-2,2.129301662E-3
7.953816818E0,-2.797762863E-2,-1.742885858E-1,1.432915311E-2
7.973818380E0,-5.183627829E-3,-2.098409384E-1,2.816961333E-2
7.993818380E0,-3.028146178E-2,-2.874906361E-1,3.925245628E-2
8.013818380E0,-2.211332135E-2,-2.035577446E-1,3.408627957E-2
8.033818380E0,-4.907865822E-2,-1.489289403E-1,3.321361542E-2
8.053818380E0,-1.535889693E-3,-1.271472424E-1,4.502949491E-2
8.073816818E0,-5.811946467E-3,-1.231504306E-1,4.010766745E-2
8.093816818E0,-1.687733456E-2,-9.344492853E-2,2.656391077E-2
8.113818380E0,-3.228859231E-2,-1.301143020E-1,-7.679448463E-4
8.133818380E0,-7.173303049E-3,-1.274613887E-1,-1.296779606E-2
8.153816818E0,2.792526735E-3,-1.159945801E-1,-2.225294709E-2
8.173816818E0,-4.317944497E-2,-1.327846497E-1,-3.344050795E-2
8.193819943E0,-4.532619938E-2,-5.527457595E-2,-6.147049740E-2
8.213818380E0,-5.885250121E-2,-7.728318125E-2,-1.037074625E-1
8.233816818E0,-3.625048697E-2,-1.099208370E-1,-1.087689176E-1
8.253818380E0,-5.445427261E-3,-9.316567332E-2,-8.408996463E-2
8.273816818E0,-6.195918657E-3,-1.432217211E-1,-9.988519549E-2
8.293819943E0,-1.520181727E-2,-1.121723130E-1,-1.825788915E-1
8.313816818E0,-3.956661373E-2,-1.727875881E-2,-2.798111737E-1
8.333818380E0,5.642649531E-2,3.448596001E-1,-2.596875429E-1
8.353818380E0,-9.737192094E-2,2.470164448E-1,-2.069611400E-1
8.373816818E0,-3.318394423E-1,-2.143962383E-1,-2.345198840E-1
8.393818380E0,-3.351555765E-1,-9.611528367E-2,-3.245614171E-1
8.413818380E0,-2.903529704E-1,9.379399568E-2,-3.393443525E-1
8.433818380E0,-3.260100484E-1,6.159266829E-2,-3.385415077E-1
8.453816818E0,-3.708475530E-1,1.655968428E-1,-3.579670191E-1
8.473818380E0,-4.234343171E-1,2.259852290E-1,-4.020365775E-1
8.493818380E0,-3.733433783E-1,3.814242482E-1,-4.275532961E-1
8.513818380E0,-3.047344983E-1,5.759761333E-1,-4.555483758E-1
8.533818380E0,-2.555510998E-1,5.273861289E-1,-4.283038080E-1
8.553818380E0,-2.060710192E-1,2.773502767E-1,-3.956486881E-1
8.573818380E0,-1.339016557E-1,7.147122920E-2,-3.819653094E-1
8.593816818E0,-3.345796093E-2,-3.068288788E-2,-4.240975678E-1
8.613819943E0,1.521927118E-2,-2.331759781E-2,-4.639957845E-1
8.633816818E0,5.661848187E-2,-1.240580007E-1,-4.460188746E-1
8.653816818E0,1.679355800E-1,-2.806838453E-1,-3.881437778E-1
8.673816818E0,3.087661862E-1,-4.895299375E-1,-2.832494974E-1
8.693818380E0,3.984412253E-1,-6.558947563E-1,-1.894031316E-1
8.713818380E0,3.719820082E-1,-6.370277405E-1,-1.398881376E-1
8.733816818E0,2.870368361E-1,-5.041034222E-1,-1.251226515E-1
8.753818380E0,2.362652272E-1,-3.417878151E-1,-1.113694608E-1
8.773818380E0,2.132268697E-1,-2.728822231E-1,-6.869615614E-2
8.793818380E0,1.350535750E-1,-3.506540954E-1,-4.178318381E-2
8.813818380E0,5.222025141E-2,-4.355294704E-1,6.096434966E-2
8.833818380E0,-2.925171889E-2,-3.176848292E-1,1.398357749E-1
8.853818380E0,-4.014257342E-2,-1.366243660E-1,1.413891166E-1
8.873816818E0,-4.607669078E-3,-6.719517522E-3,1.009149402E-1
8.893819943E0,2.448697016E-2,6.154030934E-2,5.394812673E-2
8.913818380E0,4.476769641E-2,4.258603230E-2,3.865904361E-2
8.933816818E0,4.871213809E-2,-1.120501384E-2,7.019714266E-2
8.953816818E0,3.740240633E-2,-1.923352852E-2,9.238027781E-2
8.973818380E0,2.024581842E-2,-4.602433369E-2,8.223991096E-2
8.993816818E0,7.749261800E-3,-1.048768312E-1,8.370599151E-2
9.013818380E0,-5.030038953E-2,-6.970845163E-2,5.359905958E-2
9.033818380E0,-7.813838869E-2,-2.076941729E-2,7.173303049E-3
9.053818380E0,-7.576474547E-2,2.069960535E-2,-2.431243658E-2
9.073818380E0,-2.204350755E-2,4.235913977E-2,-1.518436475E-3
9.093816818E0,2.940879762E-2,3.478441015E-2,4.600688070E-2
9.113818380E0,3.658210114E-2,5.000368133E-2,9.513789415E-2
9.133818380E0,-2.202605456E-2,1.067268848E-1,9.435249865E-2
9.153816818E0,-6.876597181E-3,1.993864179E-1,8.286823332E-2
9.173816818E0,1.788962446E-2,3.398330510E-1,8.642870188E-2
9.193818380E0,6.469935179E-2,3.857352138E-1,1.404117346E-1
9.213818380E0,9.367182106E-2,2.215695530E-1,2.384294271E-1
9.233816818E0,1.022762898E-2,7.967428118E-2,3.130073547E-1
9.253819943E0,-6.373942643E-2,2.115339041E-2,3.224321306E-1
9.273818380E0,5.532693584E-3,-9.487609565E-2,2.990796268E-1
9.293819943E0,7.335618883E-2,-1.339714676E-1,3.051359057E-1
9.313816818E0,5.225515738E-2,-8.899433911E-2,2.911383808E-1
9.333818380E0,-6.754423957E-3,-1.033758521E-1,2.375393063E-1
9.353818380E0,4.064871743E-2,-5.862560868E-2,1.815665960E-1
9.373818380E0,1.551074088E-1,-2.583087189E-3,2.056521475E-1
9.393819943E0,1.353677362E-1,7.260569930E-2,2.722364664E-1
9.413818380E0,2.223549411E-2,1.017177850E-1,2.903529704E-1
9.433818380E0,-2.708750963E-2,1.579173952E-1,2.223898470E-1
9.453816818E0,4.216715321E-2,2.635098100E-1,1.420698017E-1
9.473818380E0,9.826203436E-2,2.872462869E-1,1.058891267E-1
9.493816818E0,6.691592187E-2,1.910611987E-1,1.125388294E-1
9.513816818E0,-3.057816811E-2,1.341634542E-1,7.642796636E-2
9.533818380E0,-1.853539608E-2,1.217367128E-1,4.558800161E-2
9.553818380E0,4.790928960E-2,9.848892689E-2,2.188642882E-2
9.573816818E0,4.124213010E-2,6.035348400E-2,5.853834376E-2
9.593816818E0,-6.578145921E-2,2.172934823E-2,4.043927789E-2
9.613818380E0,-9.772098809E-2,5.742133036E-2,-4.729842301E-3
9.633816818E0,-4.317944497E-2,1.369385272E-1,-5.852089077E-2
9.653818380E0,4.864232615E-2,2.134886682E-1,-4.026474431E-2
9.673816818E0,7.588691264E-2,1.661553383E-1,4.136430472E-2
9.693818380E0,-4.431391135E-2,1.069188714E-1,8.627162129E-2
9.713818380E0,-1.263443828E-1,1.354200989E-1,4.251622036E-2
9.733816818E0,-9.765116870E-2,2.423738688E-1,-2.853613347E-2
9.753818380E0,5.113814492E-3,3.705857694E-1,-5.663593486E-2
9.773818380E0,7.368779927E-2,4.075692892E-1,-2.272418700E-2
9.793818380E0,7.187265903E-2,3.634648025E-1,1.785471849E-2
9.813818380E0,4.454080388E-2,3.151715696E-1,4.057890549E-2
9.833818380E0,1.408480667E-2,2.824989855E-1,3.279473633E-2
9.853818380E0,1.329940930E-2,2.545737326E-1,1.146681327E-2
9.873816818E0,2.747148275E-2,1.783552021E-1,2.659881860E-2
9.893818380E0,3.525565192E-2,9.805259854E-2,5.845107511E-2
9.913818380E0,2.977531776E-2,4.321435094E-2,6.867870688E-2
9.933816818E0,2.981022373E-2,-1.665044017E-2,6.578145921E-2
9.953816818E0,3.345796093E-2,-5.270894151E-3,3.269001842E-2
9.973818380E0,4.061381146E-2,-1.569050923E-2,8.360126987E-3
9.993818380E0,6.141813472E-2,-1.361356815E-3,1.052433532E-2
1.001381682E1,6.724753231E-2,1.989675453E-3,1.596976258E-2
1.003381838E1,6.918485463E-2,2.591813914E-2,3.466223925E-2
1.005381838E1,5.405284837E-2,-1.579522900E-2,5.476843193E-2
1.007381838E1,4.054399952E-2,2.007128671E-3,4.152138159E-2
1.009381682E1,1.471312530E-2,-1.123992074E-2,3.752457723E-2
1.011381838E1,1.256637042E-3,-2.604031190E-2,3.516838327E-2
1.013381838E1,1.850049011E-3,-3.038618155E-2,2.551671304E-2
1.015381838E1,1.832595677E-3,-4.569271952E-2,1.471312530E-2
1.017381682E1,-4.520402756E-3,-4.642575979E-2,-1.151917269E-3
1.019381994E1,-1.408480667E-2,-2.982767671E-2,-2.174680308E-2
1.021381682E1,-2.713987045E-2,-6.073745899E-3,-3.946189582E-2
1.023381682E1,-3.728023171E-2,7.243116386E-3,-5.003859103E-2
1.025381994E1,-4.913101718E-2,8.639379404E-3,-4.855506122E-2
1.027381838E1,-5.569345504E-2,-7.330382941E-4,-4.099778458E-2
1.029381838E1,-5.021312088E-2,-1.162389293E-2,-3.895574808E-2
1.031381682E1,-3.438298777E-2,-1.281071641E-2,-4.117231816E-2
1.033381838E1,-1.598721556E-2,-1.141445339E-2,-4.824090004E-2
1.035381838E1,-6.021386012E-3,-1.834340952E-2,-5.110324174E-2
1.037381682E1,-1.640609466E-3,-2.225294709E-2,-4.839798063E-2
1.039381994E1,1.361356815E-3,-1.635373570E-2,-4.157374427E-2
1.041381838E1,7.068583276E-3,5.235987715E-3,-3.583160788E-2
1.043381838E1,1.137954649E-2,1.865756884E-2,-3.410373256E-2
1.045381838E1,8.953538723E-3,1.822123677E-2,-2.572615258E-2
1.047381838E1,1.570796303E-4,1.153662615E-2,-1.443387289E-2
1.049381838E1,-6.038838997E-3,5.427973811E-3,-2.059488557E-3
1.051381838E1,-7.243116386E-3,1.832595677E-3,2.967059612E-3
1.053381838E1,-5.585053586E-4,-5.410520826E-4,6.038838997E-3
1.055381838E1,3.787364578E-3,-8.028514683E-3,2.460914198E-3
1.057381838E1,4.433136433E-3,-1.240929123E-2,-2.617993741E-4
1.059381682E1,-5.759586347E-4,-1.439896598E-2,-4.014257283E-4
1.061381838E1,-3.333578818E-3,-9.040805511E-3,-2.617993741E-4
1.063381838E1,-6.335545331E-3,-1.007054932E-2,-1.588249579E-3
1.065381682E1,-5.916666240E-3,-1.335176919E-2,-1.780235791E-3
1.067381682E1,-4.380776547E-3,-1.609193534E-2,-2.740166849E-3
1.069381838E1,-2.513274085E-3,-1.265363675E-2,-3.368485486E-3
1.071381838E1,-1.396263367E-3,-1.151917316E-2,-2.775073517E-3
1.073381682E1,-4.014257283E-4,-1.087340154E-2,3.665191471E-4
1.075381838E1,-1.745329238E-3,-8.936085738E-3,2.059488557E-3
1.077381838E1,-3.612831468E-3,-4.939281847E-3,6.667157635E-3
1.079381838E1,-6.911503617E-3,7.504915702E-4,9.215338156E-3
1.081381838E1,-6.003932562E-3,4.049163777E-3,8.098327555E-3
1.083381838E1,-6.998770405E-3,1.780235791E-3,6.352998316E-3
1.085381838E1,-5.270894151E-3,3.787364578E-3,3.193952609E-3
1.087381682E1,-4.188790335E-4,5.061454605E-3,-7.679448463E-4
1.089381994E1,5.235987715E-3,-6.457717973E-4,-4.904375412E-3
1.091381682E1,5.078908056E-3,-2.844886621E-3,-6.544984877E-3
1.093381682E1,9.651671164E-3,7.016223390E-3,-5.305801053E-3
1.095381682E1,1.021017600E-2,9.040805511E-3,-3.769911127E-3
1.097381838E1,9.948377265E-4,-7.976154797E-3,-1.780235791E-3
1.099381838E1,-3.455751808E-3,-2.832669392E-2,9.250245057E-4
1.101381682E1,-2.897246508E-3,-2.834414691E-2,1.989675453E-3
1.103381994E1,-3.490658419E-4,-1.431170013E-2,1.448623254E-3
1.105381838E1,6.806784077E-4,-4.729842301E-3,1.291543595E-3
1.107381838E1,7.679448463E-4,-7.382742595E-3,7.853981806E-4
1.109381682E1,-1.308996929E-3,-5.829399452E-3,-6.981316837E-4
1.111381838E1,-7.330382708E-3,3.263765713E-3,-1.797689125E-3
1.113381682E1,-1.122246683E-2,6.073745899E-3,-2.059488557E-3
1.115381682E1,-1.319468953E-2,7.644542027E-3,-3.665191471E-4
1.117381682E1,-1.438151300E-2,1.457349956E-2,-3.595378250E-3
1.119381838E1,-1.471312530E-2,1.377064735E-2,-3.892084118E-3
1.121381838E1,-1.048942842E-2,1.504473854E-2,-3.595378250E-3
1.123381682E1,-6.335545331E-3,1.396263391E-2,-2.617993858E-3
1.125381838E1,-3.787364578E-3,1.687733456E-2,-3.159045940E-3
1.127381838E1,-7.941247895E-3,1.537635084E-2,-3.700098023E-3
1.129381838E1,-1.195550524E-2,1.094321441E-2,-4.607669078E-3
1.131381682E1,-1.034980267E-2,1.242674422E-2,-5.602506921E-3
1.133381838E1,-5.078908056E-3,1.792453043E-2,-5.131267942E-3
1.135381838E1,-6.126105785E-3,1.661553420E-2,-6.702064537E-3
1.137381682E1,-9.669124149E-3,1.043706853E-2,-3.263765713E-3
1.139381994E1,-1.089085452E-2,4.869468510E-3,9.075712296E-4
1.141381838E1,-1.219985168E-2,9.773843922E-3,1.117010717E-3
1.143381838E1,-7.609635592E-3,1.731366664E-2,1.972222002E-3
1.145381682E1,-9.669124149E-3,2.167698927E-2,1.047197497E-3
1.147381838E1,-1.225221157E-2,2.122320421E-2,0.000000000E0
1.149381838E1,-1.450368576E-2,1.991420612E-2,-3.333578818E-3
1.151381682E1,-1.282817032E-2,2.295107953E-2,-4.328416660E-3
1.153381994E1,-1.057669520E-2,2.169444226E-2,-6.213372108E-3
1.155381838E1,-1.120501384E-2,1.773254573E-2,-4.276056774E-3
1.157381682E1,-1.038470864E-2,1.417207345E-2,-4.276056774E-3
1.159381682E1,-1.221730467E-2,1.460840553E-2,-1.553343027E-3
1.161381838E1,-1.239183731E-2,1.843067631E-2,-1.466076588E-3
1.163381838E1,-1.415462047E-2,1.898918301E-2,-9.075712296E-4
1.165381838E1,-1.029744279E-2,2.110103145E-2,-2.094395168E-4
1.167381682E1,-8.779006079E-3,2.019345947E-2,2.617993741E-4
1.169381994E1,-3.054326167E-3,1.827359758E-2,-2.914699726E-3
1.171381838E1,2.234021435E-3,1.258382387E-2,-1.448623254E-3
1.173381682E1,2.234021435E-3,2.134537697E-2,-8.552113432E-4
1.175381838E1,3.403391922E-3,3.349286690E-2,-3.874630900E-3
1.177381838E1,9.599310579E-4,3.230604529E-2,-3.717551241E-3
1.179381838E1,-3.630284918E-3,1.972221956E-2,-4.101523664E-3
1.181381838E1,-3.316125600E-3,3.159045940E-3,-1.658062800E-3
1.183381838E1,8.552113432E-4,-2.600540640E-3,-4.188790335E-4
1.185381838E1,5.969026126E-3,3.455751808E-3,6.981316983E-5
1.187381682E1,2.722713631E-3,1.246165112E-2,-2.583087189E-3
1.189381994E1,1.099557383E-3,1.305506285E-2,-4.276056774E-3
1.191381838E1,-2.617993858E-3,1.263618376E-2,-4.066617228E-3
1.193381682E1,-4.782202188E-3,1.197295822E-2,-3.403391922E-3
1.195381682E1,-4.363323096E-3,8.307767101E-3,-3.054326167E-3
1.197381838E1,-2.391101094E-3,7.016223390E-3,-3.909537569E-3
1.199381838E1,-1.291543595E-3,6.928957067E-3,-5.288347602E-3
1.201381682E1,-2.740166849E-3,5.881759338E-3,-4.223696887E-3
1.203381994E1,-2.042035107E-3,6.230825558E-3,-4.363323096E-4
1.205381838E1,3.822271014E-3,1.103048120E-2,-1.570796361E-3
1.207381838E1,7.609635592E-3,1.745329238E-2,-7.365289610E-3
1.209381682E1,1.509709843E-2,1.525417715E-2,-8.901178837E-3
1.211381838E1,1.795943826E-2,1.014036313E-2,-8.115780540E-3
1.213381838E1,1.778490469E-2,1.588249579E-3,-7.557275705E-3
1.215381838E1,1.647590846E-2,-5.183627829E-3,-6.998770405E-3
1.217381682E1,1.399754081E-2,-9.930923581E-3,-5.480333697E-3
1.219381838E1,1.282817032E-2,-1.158898603E-2,-2.111848444E-3
1.221381838E1,8.744099177E-3,-1.240929123E-2,7.330382941E-4
1.223381682E1,9.599311277E-3,-9.913469665E-3,3.298672382E-3
1.225381838E1,9.738937020E-3,-8.621926419E-3,2.984513063E-3
1.227381838E1,7.173303049E-3,-9.721484035E-3,6.021386012E-3
1.229381838E1,7.225662936E-3,-1.209513191E-2,4.241149873E-3
1.231381682E1,8.901178837E-3,-1.689478755E-2,3.036872949E-3
1.233381838E1,1.043706853E-2,-2.035053819E-2,1.762782573E-3
1.235381838E1,8.429939859E-3,-2.384119667E-2,1.361356815E-3
1.237381682E1,9.861109778E-3,-2.153736353E-2,1.151917269E-3
1.239381994E1,8.203047328E-3,-2.007128671E-2,1.745329238E-3
1.241381838E1,4.886921961E-3,-1.996656694E-2,2.356194425E-3
1.243381838E1,5.044001620E-3,-2.237512171E-2,3.909537569E-3
1.245381682E1,1.036725566E-2,-2.293362655E-2,4.502949305E-3
1.247381838E1,1.101302728E-2,-2.073451132E-2,2.408554312E-3
1.249381838E1,1.310742274E-2,-2.494075522E-2,1.256637042E-3
1.251381682E1,1.626646891E-2,-2.132792398E-2,1.169370604E-3
1.253381838E1,1.865756884E-2,-5.375613924E-3,2.443460980E-4
1.255381838E1,1.757546514E-2,-3.892084118E-3,1.780235791E-3
1.257381682E1,1.082104165E-2,-1.960004680E-2,1.762782573E-3
1.259381682E1,6.265731994E-3,-3.609341010E-2,2.984513063E-3
1.261381838E1,8.482299745E-3,-4.021238536E-2,4.206243437E-3
1.263381838E1,1.391027402E-2,-2.588323317E-2,2.565633971E-3
1.265381682E1,1.385791413E-2,-1.080358773E-2,2.146754880E-3
1.267381682E1,1.354375482E-2,-7.173303049E-3,1.117010717E-3
1.269381838E1,1.022762898E-2,-6.876597181E-3,-9.948377265E-4
1.271381838E1,6.213372108E-3,-2.146754880E-3,-2.879793290E-3
1.273381682E1,3.665191354E-3,-2.094394993E-3,-2.792526735E-3
1.275381838E1,5.183627829E-3,-6.178465672E-3,-1.239183708E-3
1.277381838E1,6.789330859E-3,-1.040216256E-2,1.256637042E-3
1.279381838E1,3.455751808E-3,-1.363102160E-2,1.762782573E-3
1.281381838E1,7.330382941E-4,-1.773254573E-2,2.391101094E-3
1.283381838E1,2.548180753E-3,-9.686577134E-3,3.316125600E-3
1.285381838E1,5.724680144E-3,-3.071779385E-3,1.989675453E-3
1.287381682E1,4.171337001E-3,-6.195918657E-3,6.806784077E-4
1.289381994E1,2.268928103E-3,-1.577777602E-2,7.155850180E-4
1.291381838E1,4.241149873E-3,-1.843067631E-2,5.410520826E-4
1.293381682E1,6.946410518E-3,-1.057669520E-2,-1.343903481E-3
1.295381682E1,8.779006079E-3,-3.298672382E-3,-4.729842301E-3
1.297381838E1,8.761553094E-3,-9.948377265E-4,-2.548180753E-3
1.299381838E1,5.270894151E-3,-1.396263397E-4,-5.235987919E-5
1.301381682E1,1.169370604E-3,-1.361356815E-3,-3.316125658E-4
1.303381682E1,1.884955564E-3,-5.148721393E-3,2.094395168E-4
1.305381838E1,1.239183708E-3,-5.934119225E-3,-5.061454722E-4
1.307381838E1,1.308996929E-3,-5.602506921E-3,7.155850180E-4
1.309381682E1,1.029744279E-3,-8.988445625E-3,1.762782573E-3
1.311381838E1,2.268928074E-4,-1.057669520E-2,2.321287990E-3
1.313381682E1,2.967059845E-4,-9.948376566E-3,1.937315450E-3
1.315381682E1,1.919862116E-4,-8.220500313E-3,1.762782573E-3
1.317381682E1,-1.396263397E-4,-5.916666240E-3,2.949606394E-3
1.319381838E1,-2.443460980E-4,-5.951572675E-3,2.478367416E-3
1.321381838E1,-9.599310579E-4,-1.103048120E-2,3.351032268E-3
1.323381682E1,-2.879793290E-3,-8.429939859E-3,1.500983140E-3
1.325381994E1,-1.954768784E-3,-1.117010717E-3,-6.283185212E-4
1.327381838E1,-2.827433404E-3,-4.712388909E-4,-1.658062800E-3
1.329381838E1,-3.316125658E-4,6.283185212E-4,-6.981316983E-5
1.331381682E1,1.082104165E-3,-5.759586347E-4,-8.377580671E-4
1.333381838E1,4.904375412E-3,-1.500983140E-3,-1.029744279E-3
1.335381682E1,6.003932562E-3,8.028514567E-4,3.141592606E-4
1.337381682E1,9.023352526E-3,1.192059834E-2,9.948377265E-4
1.339381994E1,1.186823845E-2,1.874483563E-2,-6.457717973E-4
1.341381838E1,5.201081280E-3,2.199114766E-3,-8.203047328E-4
1.343381838E1,-3.490658419E-4,-1.809906401E-2,-5.061454722E-4
1.345381682E1,7.504915702E-4,-2.361430414E-2,-1.047197584E-4
1.347381838E1,6.579891313E-3,-1.120501384E-2,-2.268928074E-4
1.349381838E1,7.801621687E-3,-9.075712296E-4,1.396263367E-3
1.351381838E1,4.258603323E-3,-6.981316837E-4,9.948377265E-4
1.353381682E1,1.151917269E-3,-3.106686054E-3,8.552113432E-4
1.355381838E1,1.047197584E-4,-1.448623254E-3,-6.981316983E-5
1.357381838E1,-1.204277156E-3,-4.537856148E-4,1.029744279E-3
1.359381682E1,-5.934119690E-4,-5.061454605E-3,2.460914198E-3
1.361381994E1,1.745329209E-4,-3.944444004E-3,1.640609466E-3
1.363381838E1,-2.827433404E-3,-5.742133129E-3,3.316125658E-4
1.365381682E1,-5.358160939E-3,-3.961897455E-3,9.424777818E-4
1.367381682E1,-3.438298590E-3,-1.954768784E-3,-1.710422686E-3
1.369381838E1,2.356194425E-3,2.164208330E-3,-1.500983140E-3
1.371381682E1,1.919862116E-3,8.028514567E-4,-2.460914198E-3
1.373381682E1,-1.396263397E-4,-7.033676840E-3,-3.385938704E-3
1.375381838E1,-1.954768784E-3,-7.365289610E-3,-4.049163777E-3
1.377381682E1,-8.377580671E-4,-2.652900526E-3,-5.131267942E-3
1.379381838E1,1.919862116E-3,2.967059845E-4,-3.054326167E-3
1.381381838E1,6.108652451E-4,-8.726646047E-5,8.726646047E-5
1.383381838E1,-5.410520826E-4,-1.570796303E-4,7.155850180E-4
1.385381682E1,-2.652900526E-3,-6.283185212E-4,1.762782573E-3
1.387381682E1,-2.478367416E-3,6.283185212E-4,1.483529806E-3
1.389381838E1,-1.727875904E-3,6.457717973E-4,1.692969352E-3
1.391381838E1,4.363323096E-4,-1.047197497E-3,1.221730490E-3
1.393381682E1,-7.679448463E-4,-3.438298590E-3,1.832595677E-3
1.395381682E1,-2.530727303E-3,-7.801621687E-3,1.117010717E-3
1.397381838E1,-3.071779385E-3,-8.464846760E-3,7.853981806E-4
1.399381682E1,-5.654866807E-3,-5.497787148E-3,-1.221730490E-4
1.401381682E1,-2.775073517E-3,-3.228859045E-3,6.981316837E-4
1.403381682E1,-2.042035107E-3,-1.082104165E-3,1.692969352E-3
1.405381838E1,-3.822271014E-3,-2.111848444E-3,1.448623254E-3
1.407381682E1,-6.963863503E-3,-3.124139272E-3,2.443460980E-4
1.409381682E1,-8.604473434E-3,6.457717973E-4,9.075712296E-4
1.411381838E1,-8.970992640E-3,9.791296907E-3,5.759586347E-4
1.413381682E1,-1.068141498E-2,1.380555425E-2,1.745329246E-5
1.415381682E1,-1.033234876E-2,1.595230959E-2,3.490658492E-5
1.417381682E1,-6.440265104E-3,1.485275198E-2,-1.204277156E-3
1.419381838E1,-6.806784077E-4,1.375319436E-2,-1.535889693E-3
1.421381682E1,8.726646192E-4,1.007054932E-2,-1.553343027E-3
1.423381682E1,1.919862116E-3,1.576032303E-2,-2.094395168E-4
1.425381838E1,5.462880712E-3,2.848377265E-2,-1.064650831E-3
1.427381682E1,-2.775073517E-3,2.075196430E-2,-8.726646047E-5
1.429381838E1,-7.470009383E-3,1.850049011E-3,1.029744279E-3
1.431381682E1,-6.597344764E-3,-6.736970972E-3,9.948377265E-4
1.433381838E1,2.443460980E-4,1.099557383E-3,9.773843922E-4
1.435381682E1,3.857177682E-3,1.460840553E-2,-1.850049011E-3
1.437381682E1,8.028514567E-4,1.780235767E-2,-2.443460980E-3
1.439381838E1,-4.206243437E-3,1.232202444E-2,-2.356194425E-3
1.441381838E1,-7.819075137E-3,1.232202444E-2,-2.495820867E-3
1.443381682E1,-7.941247895E-3,1.246165112E-2,-1.221730490E-3
1.445381682E1,-7.888888009E-3,1.036725566E-2,-1.553343027E-3
1.447381838E1,-8.499753661E-3,1.200786512E-2,-1.658062800E-3
1.449381682E1,-7.661995478E-3,1.181587856E-2,-1.500983140E-3
1.451381682E1,-9.948376566E-3,7.574729156E-3,-8.203047328E-4
1.453381682E1,-8.255407214E-3,6.754423957E-3,4.188790335E-4
1.455381838E1,-5.550147034E-3,1.055924222E-2,2.617993741E-4
1.457381682E1,-5.585053470E-3,1.211258490E-2,-3.577925032E-3
1.459381682E1,-8.604473434E-3,8.988445625E-3,-5.742133129E-3
1.461381838E1,-7.976154797E-3,8.831365965E-3,-6.405358203E-3
1.463381838E1,-6.370451767E-3,1.068141498E-2,-7.522369269E-3
1.465381682E1,-5.637413356E-3,1.240929123E-2,-6.300638430E-3
1.467381682E1,-6.300638430E-3,1.357866172E-2,-5.724680144E-3
1.469381838E1,-6.649704650E-3,1.277581044E-2,-3.560471581E-3
1.471381838E1,-7.731808349E-3,1.263618376E-2,-2.286381321E-3
1.473381682E1,-5.445427261E-3,9.616764262E-3,5.235987483E-4
1.475381838E1,-2.495820867E-3,2.949606394E-3,1.762782573E-3
1.477381838E1,-3.368485486E-3,-2.967059612E-3,2.792526735E-3
1.479381838E1,-7.260569837E-3,-6.178465672E-3,1.448623254E-3
1.481381838E1,-1.186823845E-2,-1.675516134E-3,6.981316837E-4
1.483381838E1,-1.193805225E-2,5.777040031E-3,-8.203047328E-4
1.485381838E1,-1.010545623E-2,1.132718660E-2,-1.815142459E-3
1.487381682E1,-1.120501384E-2,1.228711754E-2,-3.665191471E-4
1.489381994E1,-1.239183731E-2,1.083849464E-2,1.727875904E-3
1.491381838E1,-1.223475765E-2,1.345648803E-2,1.762782573E-3
1.493381838E1,-1.178097259E-2,1.576032303E-2,-1.047197584E-4
1.495381682E1,-1.326450240E-2,1.521927118E-2,-1.151917269E-3
1.497381838E1,-1.158898603E-2,1.733111963E-2,-1.972222002E-3
1.499381838E1,-6.457718089E-3,1.947787404E-2,-2.251474652E-3
1.501381838E1,-2.164208330E-3,1.912880875E-2,-2.164208330E-3
1.503381682E1,8.552113432E-4,7.260569837E-3,-4.206243437E-3
1.505381838E1,-1.658062800E-3,8.307767101E-3,-2.635447076E-3
1.507381838E1,-1.640609466E-3,2.396337129E-2,-2.111848444E-3
1.509381682E1,1.919862116E-4,2.902482450E-2,-4.276056774E-3
1.511381838E1,-4.991641734E-3,1.682497375E-2,-4.188789986E-3
1.513381838E1,-7.295476273E-3,1.919862116E-3,-2.181661548E-3
1.515381838E1,-3.944444004E-3,-1.867502346E-3,-7.330382941E-4
1.517381682E1,2.042035107E-3,4.886921961E-3,5.235987919E-5
1.519381838E1,2.949606394E-3,1.626646891E-2,-1.989675453E-3
1.521381838E1,6.457717973E-4,1.679006778E-2,-2.617993858E-3
1.523381682E1,-1.396263367E-3,1.467821933E-2,-2.932153177E-3
1.525381838E1,-2.373647876E-3,9.896016680E-3,-1.919862116E-3
1.527381838E1,-2.356194425E-3,6.981316954E-3,-3.490658419E-4
1.529381838E1,-3.385938704E-3,6.736970972E-3,-1.483529806E-3
1.531381682E1,2.094395168E-4,4.101523664E-3,-3.036872949E-3
1.533381838E1,0.000000000E0,-9.948377265E-4,-3.106686054E-3
1.535381838E1,-7.330382941E-4,-2.827433404E-3,-1.378810150E-3
1.537381682E1,2.268928103E-3,1.291543595E-3,1.047197584E-4
1.539381994E1,6.475171540E-3,1.466076588E-3,-1.989675453E-3
1.541381838E1,7.243116386E-3,-3.630284918E-3,-2.321287990E-3
1.543381682E1,9.721484035E-3,-1.506219152E-2,5.235987919E-5
1.545381682E1,1.291543618E-2,-2.356194519E-2,6.981316837E-4
1.547381838E1,1.434660610E-2,-2.506292798E-2,-5.934119690E-4
1.549381838E1,1.089085452E-2,-2.617993951E-2,-6.108652451E-4
1.551381838E1,6.998770405E-3,-2.183406800E-2,-3.490658419E-4
1.553381682E1,6.754423957E-3,-1.656317525E-2,1.762782573E-3
1.555381838E1,5.672320258E-3,-1.308996975E-2,2.426007763E-3
1.557381682E1,7.086036727E-3,-1.347394194E-2,3.717551241E-3
1.559381682E1,4.799655639E-3,-1.532399096E-2,3.735004691E-3
1.561381838E1,4.660028964E-3,-1.811651699E-2,1.902408898E-3
1.563381838E1,5.393067375E-3,-1.960004680E-2,1.762782573E-3
1.565381838E1,3.176499158E-3,-1.808161102E-2,1.762782573E-3
1.567381682E1,8.726646192E-4,-1.788962446E-2,1.762782573E-3
1.569381838E1,2.234021435E-3,-1.082104165E-2,1.431170036E-3
1.571381838E1,1.954768784E-3,-4.502949305E-3,9.773843922E-4
1.573381682E1,9.599310579E-4,-5.567600485E-3,8.028514567E-4
1.575381994E1,1.099557383E-3,-1.226966456E-2,2.303834539E-3
1.577381838E1,5.201081280E-3,-1.246165112E-2,1.326450263E-3
1.579381838E1,7.347836159E-3,-1.286307629E-2,2.024581889E-3
1.581381682E1,1.148426626E-2,-2.132792398E-2,1.762782573E-3
1.583381838E1,1.562069636E-2,-1.583013684E-2,3.909537569E-3
1.585381838E1,1.399754081E-2,-2.111848444E-3,1.483529806E-3
1.587381838E1,1.141445339E-2,-1.291543595E-3,1.029744279E-3
1.589381994E1,5.462880712E-3,-1.432915311E-2,-1.221730490E-4
1.591381838E1,4.398229532E-3,-2.661627159E-2,2.024581889E-3
1.593381682E1,8.307767101E-3,-2.511528693E-2,2.408554312E-3
1.595381682E1,1.080358773E-2,-1.462585945E-2,2.391101094E-3
1.597381838E1,1.179842558E-2,-7.295476273E-3,8.028514567E-4
1.599381838E1,9.477137588E-3,-9.354964830E-3,8.901178953E-4
1.601381682E1,4.380776547E-3,-1.017526910E-2,-3.839724232E-4
1.603381682E1,2.635447076E-3,-1.080358773E-2,-4.886921961E-4
1.605381838E1,1.710422686E-3,-1.335176919E-2,9.075712296E-4
1.607381838E1,3.717551241E-3,-1.310742274E-2,1.047197497E-3
1.609381682E1,3.490658477E-3,-1.340412907E-2,1.640609466E-3
1.611381838E1,5.061454722E-4,-1.609193534E-2,1.221730490E-3
1.613381682E1,-2.042035107E-3,-1.696459949E-2,1.361356815E-3
1.615381838E1,1.710422686E-3,-7.784168236E-3,1.832595677E-3
1.617381682E1,4.223696887E-3,-3.368485486E-3,5.235987919E-5
1.619381838E1,1.919862116E-3,-7.696901914E-3,-1.902408898E-3
1.621381838E1,1.989675453E-3,-1.549852360E-2,-2.600540640E-3
1.623381682E1,1.378810150E-3,-1.436406001E-2,-2.059488557E-3
1.625381994E1,2.565633971E-3,-9.162978269E-3,-1.658062800E-3
1.627381838E1,2.076941775E-3,-5.777040031E-3,-2.216568217E-3
1.629381838E1,1.954768784E-3,-7.260569837E-3,8.203047328E-4
1.631381682E1,2.303834539E-3,-6.946410518E-3,6.981316837E-4
1.633381838E1,1.431170036E-3,-8.063420653E-3,1.762782573E-3
1.635381838E1,9.075712296E-4,-8.936085738E-3,1.727875904E-3
1.637381838E1,5.585053586E-4,-1.029744279E-2,2.199114766E-3
1.639381994E1,-1.117010717E-3,-1.089085452E-2,6.283185212E-4
1.641381838E1,-1.047197497E-3,-1.034980267E-2,5.585053586E-4
1.643381838E1,2.617993741E-4,-1.057669520E-2,5.934119690E-4
1.645381682E1,-2.234021435E-3,-8.150687441E-3,1.343903481E-3
1.647381838E1,-4.520402756E-3,-2.286381321E-3,-4.014257283E-4
1.649381682E1,-6.981316983E-5,2.076941775E-3,-4.363323096E-4
1.651381682E1,2.809980186E-3,3.351032268E-3,6.806784077E-4
1.653381682E1,1.047197497E-3,-2.984513063E-3,1.605702913E-3
1.655381838E1,-2.216568217E-3,-1.110029407E-2,2.129301662E-3
1.657381682E1,-5.934119225E-3,-1.118756086E-2,2.251474652E-3
1.659381682E1,-4.188789986E-3,-3.351032268E-3,8.028514567E-4
1.661381838E1,-2.181661548E-3,8.203047328E-4,-3.490658492E-5
1.663381838E1,-5.235987919E-5,2.408554312E-3,1.745329238E-3
1.665381682E1,1.117010717E-3,-3.490658419E-4,1.762782573E-3
1.667381682E1,3.211405827E-3,-3.316125600E-3,1.745329238E-3
1.669381838E1,5.619960371E-3,-7.609635592E-3,5.235987483E-4
1.671381838E1,7.452555932E-3,3.141592722E-3,5.585053586E-4
1.673381682E1,9.529497474E-3,1.710422710E-2,-6.283185212E-4
1.675381838E1,3.455751808E-3,6.178465672E-3,-2.426007763E-3
1.677381682E1,-1.221730490E-3,-1.089085452E-2,-1.239183708E-3
1.679381838E1,6.806784077E-4,-1.769763790E-2,1.884955564E-3
1.681381682E1,5.393067375E-3,-1.059414819E-2,2.042035107E-3
1.683381838E1,8.395033889E-3,-1.378810150E-3,1.483529806E-3
1.685381682E1,5.340707488E-3,-5.235987919E-5,3.490658419E-4
1.687381682E1,2.879793290E-3,-5.916666240E-3,-2.617993741E-4
1.689381838E1,2.617993741E-4,-7.208209950E-3,-4.363323096E-4
1.691381838E1,9.250245057E-4,-6.475171540E-3,-1.448623254E-3
1.693381682E1,7.679448463E-4,-6.684611086E-3,1.431170036E-3
1.695381682E1,1.343903481E-3,-4.590216093E-3,2.408554312E-3
1.697381838E1,5.410520826E-4,-6.841690745E-3,2.391101094E-3
1.699381838E1,-4.886921961E-3,-1.263618376E-2,2.042035107E-3
1.701381682E1,-4.276056774E-3,-9.721484035E-3,1.762782573E-3
1.703381682E1,2.984513063E-3,1.954768784E-3,6.981316837E-4
1.705381838E1,7.051130291E-3,4.764748737E-3,7.853981806E-4
1.707381838E1,2.967059612E-3,-5.166174378E-3,-1.047197497E-3
1.709381838E1,-1.745329246E-5,-1.052433532E-2,-3.211405827E-3
1.711381838E1,5.410520826E-4,-7.190756500E-3,-4.223696887E-3
1.713381838E1,3.036872949E-3,-3.019419499E-3,-1.815142459E-3
1.715381838E1,5.148721393E-3,-1.692969352E-3,-2.268928074E-4
1.717381682E1,1.588249579E-3,-3.001966281E-3,6.108652451E-4
1.719381838E1,2.967059845E-4,-2.181661548E-3,1.239183708E-3
1.721381838E1,-1.239183708E-3,-5.881759338E-3,1.466076588E-3
1.723381682E1,-4.537856148E-4,-6.352998316E-3,1.134464052E-3
1.725381838E1,-6.283185212E-4,-4.712388851E-3,-3.490658492E-5
1.727381838E1,-6.632251316E-4,9.075712296E-4,4.363323096E-4
1.729381838E1,-1.134464052E-3,-4.817108624E-3,1.099557383E-3
1.731381682E1,-1.832595677E-3,-8.464846760E-3,1.640609466E-3
1.733381838E1,-3.281218931E-3,-7.958701812E-3,8.552113432E-4
1.735381838E1,-3.141592722E-3,-4.398229532E-3,8.552113432E-4
1.737381682E1,3.490658492E-5,-8.726646192E-4,-1.047197497E-3
1.739381994E1,-2.373647876E-3,-2.984513063E-3,5.061454722E-4
1.741381838E1,-2.146754880E-3,-6.003932562E-3,1.675516134E-3
1.743381682E1,-2.792526735E-3,-5.969026126E-3,1.989675453E-3
1.745381682E1,-2.338741207E-3,-6.056292448E-3,1.343903481E-3
1.747381994E1,-2.565633971E-3,-4.886921961E-4,-1.274090377E-3
1.749381838E1,-2.146754880E-3,2.844886621E-3,1.274090377E-3
1.751381682E1,-2.373647876E-3,2.268928074E-4,9.424777818E-4
1.753381682E1,8.726646192E-4,-4.677482415E-3,-6.283185212E-4
1.755381838E1,3.892084118E-3,-8.447393775E-3,-1.308996929E-3
1.757381682E1,5.602506921E-3,-8.726646192E-4,1.919862116E-4
1.759381838E1,1.034980267E-2,1.267109066E-2,-2.844886621E-3
1.761381838E1,7.714355364E-3,1.075122785E-2,-2.844886621E-3
1.763381838E1,1.640609466E-3,-7.993607782E-3,-1.221730490E-4
1.765381838E1,-3.019419499E-3,-2.467895485E-2,1.448623254E-3
1.767381682E1,2.164208330E-3,-1.947787404E-2,1.361356815E-3
1.769381838E1,7.278022822E-3,-5.585053586E-4,6.806784077E-4
1.771381838E1,7.941247895E-3,5.742133129E-3,1.762782573E-3
1.773381682E1,3.595378250E-3,-1.099557383E-3,1.326450263E-3
1.775381838E1,8.552113432E-4,-2.862340072E-3,1.937315450E-3
1.777381838E1,-1.850049011E-3,-3.141592606E-4,1.570796303E-4
1.779381838E1,3.839724232E-4,-1.012290944E-3,4.712388909E-4
1.781381682E1,-9.075712296E-4,-2.862340072E-3,1.047197497E-3
1.783381838E1,1.396263397E-4,-4.014257283E-4,-3.490658492E-5
1.785381838E1,-3.595378250E-3,-5.497787148E-3,-1.204277156E-3
1.787381838E1,-4.625122529E-3,-6.213372108E-3,1.396263367E-3
1.789381838E1,5.410520826E-4,-5.235987919E-5,6.981316983E-5
1.791381838E1,1.797689125E-3,6.073745899E-3,-6.981316837E-4
1.793381682E1,-5.235987483E-4,9.948377265E-4,-1.343903481E-3
1.795381682E1,-1.117010717E-3,-6.702064537E-3,-3.926991019E-3
1.797381838E1,8.726646047E-5,-6.806783844E-3,-2.932153177E-3
1.799381838E1,1.396263367E-3,-4.014257342E-3,-2.914699726E-3
1.801381682E1,6.981316837E-4,-2.757620299E-3,-2.792526793E-4
1.803381682E1,2.792526793E-4,-3.089232836E-3,2.164208330E-3
1.805381838E1,5.759586347E-4,-3.804817796E-3,1.762782573E-3
1.807381838E1,-1.972222002E-3,-1.535889693E-3,1.745329238E-3
1.809381838E1,-2.094395168E-4,-1.483529806E-3,1.274090377E-3
1.811381838E1,-1.396263367E-3,-9.948377265E-4,1.134464052E-3
1.813381682E1,-8.028514567E-4,-4.729842301E-3,-2.443460980E-4
1.815381682E1,3.490658492E-5,-8.429939859E-3,1.448623254E-3
1.817381682E1,-4.502949305E-3,-9.564404376E-3,-1.221730490E-4
1.819381838E1,-1.919862116E-3,-6.457718089E-3,-1.745329209E-4
1.821381682E1,-3.019419499E-3,-4.747295752E-3,6.108652451E-4
1.823381682E1,-2.757620299E-3,-3.490658477E-3,-6.457717973E-4
1.825381838E1,-8.203047328E-4,-2.146754880E-3,-1.919862116E-4
1.827381838E1,-1.535889693E-3,-4.625122529E-3,1.675516134E-3
1.829381838E1,-2.426007763E-3,-8.691739291E-3,2.408554312E-3
1.831381682E1,-4.171337001E-3,-8.691739291E-3,1.762782573E-3
1.833381838E1,-4.241149873E-3,-4.136430100E-3,-8.028514567E-4
1.835381682E1,-4.118977115E-3,1.832595677E-3,-3.141592606E-4
1.837381682E1,-1.029744279E-3,1.343903481E-3,1.239183708E-3
1.839381838E1,-2.024581889E-3,7.504915702E-4,-8.377580671E-4
1.841381838E1,3.490658492E-5,-2.024581889E-3,-1.117010717E-3
1.843381682E1,3.106686054E-3,-4.398229532E-3,-9.250245057E-4
1.845381682E1,5.742133129E-3,-9.424777818E-4,2.967059845E-4
1.847381838E1,1.162389293E-2,1.041961554E-2,-2.792526793E-4
1.849381682E1,9.110618383E-3,1.455604564E-2,-3.839724232E-4
1.851381682E1,1.483529806E-3,-1.570796303E-4,-8.726646047E-5
1.853381682E1,-3.595378250E-3,-1.841322333E-2,6.981316837E-4
1.855381838E1,-7.504915702E-4,-1.883210242E-2,1.378810150E-3
1.857381682E1,4.642575979E-3,4.537856148E-4,1.064650831E-3
1.859381682E1,4.345869645E-3,9.686577134E-3,4.537856148E-4
1.861381838E1,3.839724232E-4,4.625122529E-3,-1.326450263E-3
1.863381682E1,-3.490658477E-3,1.588249579E-3,-2.234021435E-3
1.865381682E1,-6.894050632E-3,2.391101094E-3,-1.326450263E-3
1.867381682E1,-4.485496320E-3,1.640609466E-3,-1.867502346E-3
1.869381838E1,-4.188789986E-3,-2.967059845E-4,1.047197584E-4
1.871381682E1,-2.129301662E-3,1.832595677E-3,7.155850180E-4
1.873381682E1,-7.976154797E-3,2.530727303E-3,-1.378810150E-3
1.875381838E1,-1.134464052E-2,3.438298590E-3,-7.330382941E-4
1.877381682E1,-8.726646192E-3,9.407324716E-3,3.665191471E-4
1.879381838E1,-3.176499158E-3,1.413716655E-2,-1.064650831E-3
1.881381682E1,-5.183627829E-3,1.108284108E-2,-5.148721393E-3
1.883381838E1,-8.045967668E-3,6.597344764E-3,-5.270894151E-3
1.885381682E1,-7.243116386E-3,1.021017600E-2,-6.021386012E-3
1.887381682E1,-7.086036727E-3,1.373574138E-2,-5.689773243E-3
1.889381682E1,-5.061454605E-3,1.513200440E-2,-3.822271014E-3
1.891381838E1,-4.834562074E-3,1.439896598E-2,-3.804817796E-3
1.893381682E1,-7.522369269E-3,1.514945831E-2,-2.146754880E-3
1.895381682E1,-9.110618383E-3,1.757546514E-2,-8.552113432E-4
1.897381838E1,-8.901178837E-3,1.619665511E-2,1.745329246E-5
1.899381838E1,-8.761553094E-3,1.328195538E-2,5.235987483E-4
1.901381682E1,-7.819075137E-3,1.303760987E-2,1.745329209E-4
1.903381682E1,-8.744099177E-3,9.791296907E-3,-1.466076588E-3
1.905381838E1,-1.015781611E-2,7.609635592E-3,-7.853981806E-4
1.907381838E1,-1.090830751E-2,1.087340154E-2,-1.308996929E-3
1.909381682E1,-1.157153305E-2,1.514945831E-2,-4.363323096E-3
1.911381838E1,-9.826203808E-3,1.754055917E-2,-2.862340072E-3
1.913381838E1,-8.412486874E-3,1.696459949E-2,-1.291543595E-3
1.915381682E1,-9.459684603E-3,1.014036313E-2,-1.256637042E-3
1.917381682E1,-1.041961554E-2,7.487462368E-3,-1.221730490E-4
1.919381838E1,-1.214749180E-2,1.233947743E-2,-1.483529806E-3
1.921381838E1,-1.221730467E-2,1.982693933E-2,-7.155850180E-4
1.923381682E1,-1.265363675E-2,2.256710641E-2,-2.478367416E-3
1.925381838E1,-9.930923581E-3,2.284635976E-2,-3.700098023E-3
1.927381838E1,-6.230825558E-3,2.172934823E-2,-4.520402756E-3
1.929381838E1,-5.061454722E-4,1.532399096E-2,-3.996803891E-3
1.931381682E1,-7.853981806E-4,1.363102160E-2,-2.042035107E-3
1.933381838E1,-6.457717973E-4,2.515019476E-2,-1.832595677E-3
1.935381682E1,6.108652451E-4,3.686135262E-2,-3.228859045E-3
1.937381682E1,-4.293509759E-3,2.682571113E-2,-3.054326167E-3
1.939381682E1,-9.791296907E-3,1.106538717E-2,-2.024581889E-3
1.941381838E1,-5.881759338E-3,2.094395168E-4,1.919862116E-4
1.943381682E1,1.396263367E-3,6.073745899E-3,4.014257283E-4
1.945381682E1,1.274090377E-3,1.708677411E-2,1.396263397E-4
1.947381838E1,-2.967059845E-4,2.241002768E-2,-3.036872949E-3
1.949381838E1,-4.555309191E-3,1.907644793E-2,-3.159045940E-3
1.951381682E1,-7.365289610E-3,1.619665511E-2,-3.892084118E-3
1.953381682E1,-6.963863503E-3,1.094321441E-2,-1.850049011E-3
1.955381838E1,-6.649704650E-3,1.315978263E-2,-1.221730490E-3
1.957381682E1,-5.846852902E-3,1.087340154E-2,-1.343903481E-3
1.959381682E1,-8.185594343E-3,6.248278543E-3,-8.901178953E-4
1.961381838E1,-8.307767101E-3,6.283185445E-3,-1.937315450E-3
1.963381682E1,-5.916666240E-3,1.401499379E-2,-2.949606394E-3
1.965381682E1,-2.059488557E-3,1.890191622E-2,-4.904375412E-3
1.967381682E1,-1.361356815E-3,1.708677411E-2,-7.504915819E-3
1.969381838E1,-2.565633971E-3,1.118756086E-2,-6.370451767E-3
1.971381838E1,-4.031710327E-3,7.225662936E-3,-6.056292448E-3
1.973381682E1,-1.884955564E-3,1.041961554E-2,-6.300638430E-3
1.975381838E1,-2.042035107E-3,1.263618376E-2,-3.874630900E-3
1.977381838E1,-2.094394993E-3,1.576032303E-2,-1.605702913E-3
1.979381994E1,-1.640609466E-3,1.530653704E-2,-7.853981806E-4
1.981381682E1,0.000000000E0,1.541125681E-2,-9.250245057E-4
1.983381838E1,-3.665191471E-4,1.239183731E-2,3.665191471E-4
1.985381682E1,8.552113432E-4,5.340707488E-3,-3.490658419E-4
1.987381838E1,1.500983140E-3,2.844886621E-3,-2.967059845E-4
1.989381838E1,1.710422686E-3,-1.745329238E-3,5.061454722E-4
1.991381994E1,3.996803891E-3,-5.916666240E-3,7.504915702E-4
1.993381838E1,4.729842301E-3,-9.145525284E-3,-1.274090377E-3
1.995381838E1,4.084070213E-3,-1.069886796E-2,-4.537856148E-4
1.997381994E1,9.075712296E-4,-9.337511845E-3,-4.712388909E-4
1.999381838E1,1.535889693E-3,-7.138396613E-3,1.413716702E-3
2.001381838E1,1.972222002E-3,-9.948376566E-3,2.094394993E-3
2.003381838E1,3.316125600E-3,-1.181587856E-2,3.490658477E-3
2.005381994E1,2.827433404E-3,-1.364847459E-2,4.345869645E-3
2.007381838E1,5.916666240E-3,-1.342158206E-2,2.565633971E-3
2.009381838E1,1.054178830E-2,-1.518436428E-2,1.012290944E-3
2.011381994E1,1.223475765E-2,-2.160717547E-2,-8.726646192E-4
2.013381838E1,1.359611470E-2,-1.867502369E-2,8.377580671E-4
2.015381838E1,1.363102160E-2,-5.480333697E-3,1.431170036E-3
2.017381838E1,1.685987972E-2,0.000000000E0,1.832595677E-3
2.019381994E1,1.169370580E-2,-1.607448235E-2,2.373647876E-3
2.021381838E1,7.853982039E-3,-3.310889751E-2,2.513274085E-3
2.023381838E1,9.896016680E-3,-4.131194204E-2,3.385938704E-3
2.025382150E1,1.663298719E-2,-3.256784379E-2,4.310963210E-3
2.027381838E1,1.595230959E-2,-2.068215236E-2,3.420845373E-3
2.029381994E1,1.453859266E-2,-1.797689125E-2,2.234021435E-3
2.031381682E1,1.019272301E-2,-2.019345947E-2,2.146754880E-3
2.033381994E1,6.300638430E-3,-1.830850355E-2,1.902408898E-3
2.035381682E1,5.707226694E-3,-2.012364566E-2,2.094394993E-3
2.037381682E1,6.981316954E-3,-1.939060725E-2,2.548180753E-3
2.039381682E1,7.853982039E-3,-1.754055917E-2,1.466076588E-3
2.041381838E1,5.096361507E-3,-1.977458037E-2,1.692969352E-3
2.043381838E1,2.286381321E-3,-1.900663599E-2,4.886921961E-4
2.045381682E1,3.054326167E-3,-1.284562331E-2,1.780235791E-3
2.047381838E1,7.749261800E-3,-7.679448463E-3,4.188790335E-4
2.049381838E1,4.782202188E-3,-1.118756086E-2,-8.203047328E-4
2.051381682E1,2.495820867E-3,-1.734857261E-2,-2.391101094E-3
2.053381682E1,4.555309191E-3,-1.513200440E-2,-1.937315450E-3
2.055381838E1,7.243116386E-3,-1.155408006E-2,-1.989675453E-3
2.057381838E1,7.539822254E-3,-1.225221157E-2,-1.466076588E-3
2.059381682E1,6.963863503E-3,-1.333431527E-2,0.000000000E0
2.061381838E1,3.665191354E-3,-1.253146399E-2,1.797689125E-3
2.063381838E1,2.670353744E-3,-1.174606569E-2,2.722713631E-3
2.065381682E1,1.326450263E-3,-1.008800324E-2,3.001966281E-3
2.067381682E1,9.250245057E-4,-9.738937020E-3,2.530727303E-3
2.069381838E1,1.780235791E-3,-1.233947743E-2,2.216568217E-3
2.071381838E1,3.316125658E-4,-1.380555425E-2,2.705260413E-3
2.073381682E1,7.330382941E-4,-1.560324337E-2,1.012290944E-3
2.075381838E1,1.466076588E-3,-1.448623277E-2,5.585053586E-4
2.077381838E1,2.967059845E-4,-1.219985168E-2,1.361356815E-3
2.079381838E1,1.500983140E-3,-1.179842558E-2,1.762782573E-3
2.081381682E1,-1.169370604E-3,-1.162389293E-2,1.727875904E-3
2.083381838E1,-4.712388909E-4,-1.178097259E-2,6.806784077E-4
2.085381838E1,-6.806784077E-4,-1.218239777E-2,1.326450263E-3
2.087381682E1,-1.762782573E-3,-8.342674002E-3,9.424777818E-4
2.089381682E1,-5.585053586E-4,-7.941247895E-3,2.094394993E-3
2.091381838E1,8.901178953E-4,-6.649704650E-3,1.884955564E-3
2.093381682E1,2.513274085E-3,-7.138396613E-3,1.064650831E-3
2.095381682E1,3.595378250E-3,-8.970992640E-3,-2.076941775E-3
2.097381838E1,7.103490178E-3,1.640609466E-3,-8.377580671E-4
2.099381838E1,1.200786512E-2,1.502728462E-2,-2.757620299E-3
2.101381682E1,7.522369269E-3,8.499753661E-3,-1.291543595E-3
2.103381682E1,1.099557383E-3,-1.029744279E-2,2.967059845E-4
2.105381838E1,-1.326450263E-3,-2.570869960E-2,1.082104165E-3
2.107381838E1,5.270894151E-3,-2.015855350E-2,1.954768784E-3
2.109381682E1,8.779006079E-3,-5.044001620E-3,1.727875904E-3
2.111381838E1,7.661995478E-3,1.727875904E-3,1.151917269E-3
2.113381838E1,3.612831468E-3,-2.652900526E-3,1.012290944E-3
2.115381682E1,1.919862116E-4,-2.111848444E-3,-5.235987483E-4
2.117381682E1,-5.235987483E-4,-1.117010717E-3,-9.948377265E-4
2.119381838E1,-1.151917269E-3,-3.543018363E-3,-9.424777818E-4
2.121381682E1,9.075712296E-4,-5.358160939E-3,9.773843922E-4
2.123381838E1,4.014257283E-4,-6.318091881E-3,4.363323096E-4
2.125381838E1,-3.944444004E-3,-9.389871731E-3,1.326450263E-3
2.127381838E1,-5.759586580E-3,-7.557275705E-3,2.356194425E-3
2.129381838E1,-1.745329246E-5,7.330382941E-4,1.658062800E-3
2.131381682E1,1.762782573E-3,2.600540640E-3,2.268928074E-4
2.133381838E1,9.250245057E-4,-2.844886621E-3,-5.410520826E-4
2.135381682E1,-1.029744279E-3,-6.894050632E-3,-3.176499158E-3
2.137381682E1,-3.665191471E-4,-5.009094719E-3,-3.490658477E-3
2.139381682E1,2.792526793E-4,-1.413716702E-3,-3.839724232E-3
2.141381838E1,5.235987483E-4,-2.949606394E-3,-1.553343027E-3
2.143381838E1,-1.274090377E-3,-2.024581889E-3,3.141592606E-4
2.145381682E1,-7.330382941E-4,-1.727875904E-3,1.553343027E-3
2.147381838E1,-9.424777818E-4,-2.565633971E-3,1.500983140E-3
2.149381838E1,-1.308996929E-3,-2.042035107E-3,1.675516134E-3
2.151381682E1,-2.617993858E-3,-4.014257283E-4,1.745329209E-4
2.153381682E1,-3.438298590E-3,-1.117010717E-3,-5.235987919E-5
2.155381838E1,-3.560471581E-3,-4.223696887E-3,-2.792526793E-4
2.157381838E1,-3.839724232E-3,-4.241149873E-3,-1.640609466E-3
2.159381682E1,-3.263765713E-3,-3.385938704E-3,-1.047197584E-4
2.161381838E1,-1.466076588E-3,-8.028514567E-4,2.443460980E-4
2.163381682E1,-5.323254038E-3,7.155850180E-4,-4.537856148E-4
2.165381682E1,-4.642575979E-3,4.712388909E-4,6.981316983E-5
2.167381682E1,-2.722713631E-3,-8.726646192E-4,1.762782573E-3
2.169381838E1,-3.368485486E-3,-3.071779385E-3,5.410520826E-4
2.171381838E1,-6.161012221E-3,-1.623156248E-3,2.792526793E-4
2.173381682E1,-8.779006079E-3,1.343903481E-3,-1.064650831E-3
2.175381838E1,-6.824237294E-3,8.499753661E-3,-1.431170036E-3
2.177381838E1,-8.866272867E-3,1.204277202E-2,-1.483529806E-3
2.179381838E1,-8.709193207E-3,1.050688233E-2,-2.967059845E-4
2.181381682E1,-6.161012221E-3,1.150172018E-2,-2.042035107E-3
2.183381838E1,-2.460914198E-3,1.073377486E-2,-1.204277156E-3
2.185381682E1,-1.658062800E-3,6.248278543E-3,-3.438298590E-3
2.187381682E1,-4.886921961E-4,1.527163107E-2,-2.146754880E-3
2.189381682E1,5.009094719E-3,2.998475730E-2,-4.694935866E-3
2.191381838E1,1.500983140E-3,2.808234841E-2,-4.171337001E-3
2.193381682E1,-6.440265104E-3,1.043706853E-2,-1.588249579E-3
2.195381682E1,-8.813912980E-3,-3.717551241E-3,-1.396263367E-3
2.197381838E1,-7.679448463E-4,-3.490658492E-5,1.326450263E-3
2.199381838E1,3.595378250E-3,1.366592757E-2,4.886921961E-4
2.201381682E1,1.710422686E-3,1.762782596E-2,-1.815142459E-3
2.203381682E1,-2.827433404E-3,1.183333248E-2,-1.343903481E-3
2.205381838E1,-6.300638430E-3,1.068141498E-2,-3.996803891E-3
2.207381838E1,-7.155850064E-3,1.169370580E-2,-3.246312495E-3
2.209381682E1,-7.888888009E-3,9.093165398E-3,-2.617993858E-3
2.211381838E1,-7.801621687E-3,9.634217247E-3,-1.343903481E-3
2.213381838E1,-6.265731994E-3,1.216494478E-2,-1.832595677E-3
2.215381682E1,-1.122246683E-2,9.302604944E-3,-1.431170036E-3
2.217381682E1,-1.172861271E-2,9.669124149E-3,-1.780235791E-3
2.219381838E1,-4.537856206E-3,1.542871073E-2,-1.762782573E-3
2.221381838E1,-1.466076588E-3,1.977458037E-2,-4.450589418E-3
2.223381682E1,-5.637413356E-3,1.466076542E-2,-6.736970972E-3
2.225381838E1,-7.993607782E-3,1.331686229E-2,-8.063420653E-3
2.227381838E1,-6.370451767E-3,1.514945831E-2,-8.150687441E-3
2.229381838E1,-3.228859045E-3,1.963495463E-2,-7.243116386E-3
2.231381682E1,-4.625122529E-3,1.773254573E-2,-5.166174378E-3
2.233381838E1,-6.789330859E-3,1.652826741E-2,-3.001966281E-3
2.235381682E1,-8.901178837E-3,1.879719645E-2,-1.483529806E-3
2.237381682E1,-9.180432186E-3,2.125811018E-2,-8.203047328E-4
2.239381682E1,-9.389871731E-3,2.097885683E-2,-6.108652451E-4
2.241381838E1,-8.115780540E-3,1.761037298E-2,-6.108652451E-4
2.243381682E1,-7.801621687E-3,1.844812930E-2,-7.853981806E-4
2.245381682E1,-1.052433532E-2,1.647590846E-2,-1.675516134E-3
2.247381838E1,-1.179842558E-2,1.785471849E-2,-2.216568217E-3
2.249381838E1,-9.651671164E-3,2.145009674E-2,-4.101523664E-3
2.251381682E1,-9.110618383E-3,2.260201424E-2,-3.961897455E-3
2.253381682E1,-7.208209950E-3,2.384119667E-2,-2.460914198E-3
2.255381838E1,-9.407324716E-3,1.665044017E-2,-1.745329238E-3
2.257381838E1,-9.180432186E-3,1.502728462E-2,-1.815142459E-3
2.259381682E1,-8.970992640E-3,1.579522900E-2,-7.679448463E-4
2.261381838E1,-7.731808349E-3,1.743583940E-2,-2.914699726E-3
2.263381838E1,-1.078613475E-2,2.108357660E-2,-1.169370604E-3
2.265381838E1,-8.604473434E-3,2.064724453E-2,-1.082104165E-3
2.267381682E1,-5.689773243E-3,2.246238664E-2,-3.316125658E-4
2.269381838E1,-2.199114766E-3,1.734857261E-2,-3.263765713E-3
2.271381682E1,9.424777818E-4,1.080358773E-2,-3.473205259E-3
2.273381682E1,9.424777818E-4,1.455604564E-2,-2.478367416E-3
2.275381838E1,5.410520826E-3,2.932153083E-2,-2.460914198E-3
2.277381838E1,3.263765713E-3,2.717477642E-2,-7.155850180E-4
2.279381838E1,2.024581889E-3,8.220500313E-3,-1.431170036E-3
2.281381682E1,-1.326450263E-3,-3.961897455E-3,7.330382941E-4
2.283381838E1,4.136430100E-3,-1.134464052E-2,1.658062800E-3
2.285381838E1,1.204277202E-2,-1.431170036E-3,9.424777818E-4
2.287381682E1,1.275835652E-2,3.577925032E-3,-4.886921961E-4
2.289381682E1,9.459684603E-3,-1.291543595E-3,-1.972222002E-3
2.291381838E1,5.462880712E-3,-5.654866807E-3,-7.853981806E-4
2.293381682E1,5.811946467E-3,-1.139700040E-2,2.181661548E-3
2.295381682E1,5.375613924E-3,-1.727875881E-2,1.064650831E-3
2.297381994E1,6.632251199E-3,-1.865756884E-2,1.308996929E-3
2.299381838E1,6.946410518E-3,-1.879719645E-2,8.377580671E-4
2.301381682E1,3.124139272E-3,-2.000147291E-2,-6.457717973E-4
2.303381682E1,8.377580671E-4,-1.802925020E-2,6.632251316E-4
2.305381838E1,6.562437862E-3,-1.027998887E-2,1.867502346E-3
2.307381682E1,9.808750823E-3,-7.417649496E-3,5.061454722E-4
2.309381682E1,1.117010694E-2,-1.160643995E-2,-1.431170036E-3
2.311381838E1,8.307767101E-3,-1.696459949E-2,-1.605702913E-3
2.313381682E1,6.963863503E-3,-1.637118869E-2,-3.193952609E-3
2.315381682E1,7.051130291E-3,-1.263618376E-2,-3.543018363E-3
2.317381682E1,6.736970972E-3,-1.183333248E-2,-2.583087189E-3
2.319381838E1,8.272860199E-3,-1.284562331E-2,5.585053586E-4
2.321381682E1,7.784168236E-3,-1.715658605E-2,1.570796361E-3
2.323381682E1,6.684611086E-3,-1.827359758E-2,2.391101094E-3
2.325381838E1,7.295476273E-3,-1.853539608E-2,3.630284918E-3
2.327381838E1,5.986479111E-3,-1.698205434E-2,4.764748737E-3
2.329381994E1,4.939281847E-3,-1.907644793E-2,4.817108624E-3
2.331381682E1,3.420845373E-3,-2.183406800E-2,3.682644805E-3
2.333381838E1,2.548180753E-3,-2.090904489E-2,2.687806962E-3
2.335381682E1,4.991641734E-3,-1.827359758E-2,2.199114766E-3
2.337381682E1,4.537856206E-3,-1.583013684E-2,1.954768784E-3
2.339381682E1,3.176499158E-3,-1.916371472E-2,2.094394993E-3
2.341381838E1,8.552113432E-4,-1.961750165E-2,1.937315450E-3
2.343381838E1,8.552113432E-4,-1.972221956E-2,1.274090377E-3
2.345381838E1,1.675516134E-3,-1.534144394E-2,8.203047328E-4
2.347381838E1,1.727875904E-3,-1.520181727E-2,1.797689125E-3
2.349381838E1,3.089232836E-3,-1.406735368E-2,1.954768784E-3
2.351381838E1,4.764748737E-3,-1.638864167E-2,1.780235791E-3
2.353381682E1,8.220500313E-3,-1.841322333E-2,2.286381321E-3
2.355381838E1,8.779006079E-3,-1.598721556E-2,2.234021435E-3
2.357381838E1,8.656833321E-3,-1.047197584E-4,1.186823938E-3
2.359381682E1,1.315978263E-2,9.634217247E-3,1.274090377E-3
2.361381838E1,9.162978269E-3,1.605702913E-3,0.000000000E0
2.363381682E1,2.303834539E-3,-1.827359758E-2,9.948377265E-4
2.365381682E1,4.049163777E-3,-3.087487444E-2,1.780235791E-3
2.367381682E1,8.342674002E-3,-2.478367463E-2,2.583087189E-3
2.369381838E1,1.092576142E-2,-1.357866172E-2,2.670353744E-3
2.371381838E1,1.113520097E-2,-7.801621687E-3,2.391101094E-3
2.373381682E1,6.056292448E-3,-8.674286306E-3,1.692969352E-3
2.375381994E1,1.012290944E-3,-7.784168236E-3,-4.537856148E-4
2.377381838E1,2.076941775E-3,-7.504915819E-3,-1.745329209E-4
2.379381838E1,1.727875904E-3,-9.913469665E-3,5.585053586E-4
2.381381682E1,3.543018363E-3,-9.512044489E-3,5.585053586E-4
2.383381838E1,1.500983140E-3,-1.384046115E-2,-8.726646047E-5
2.385381682E1,-2.862340072E-3,-1.410226058E-2,1.169370604E-3
2.387381682E1,-3.874630900E-3,-9.267698042E-3,9.948377265E-4
2.389381682E1,1.378810150E-3,-5.759586347E-4,9.250245057E-4
2.391381838E1,3.036872949E-3,-1.448623254E-3,-8.726646047E-5
2.393381838E1,1.134464052E-3,-9.930923581E-3,5.585053586E-4
2.395381838E1,-1.919862116E-4,-1.157153305E-2,-2.914699726E-3
2.397381838E1,1.169370604E-3,-6.213372108E-3,-4.694935866E-3
2.399381682E1,1.989675453E-3,-1.221730490E-4,-3.193952609E-3
2.401381838E1,2.356194425E-3,-1.989675453E-3,-1.343903481E-3
2.403381682E1,1.204277156E-3,-3.193952609E-3,-4.014257283E-4
2.405381838E1,-5.235987919E-5,-3.735004691E-3,1.413716702E-3
2.407381838E1,3.839724232E-4,-2.827433404E-3,1.902408898E-3
2.409381682E1,1.919862116E-4,-2.321287990E-3,1.762782573E-3
2.411381838E1,-1.134464052E-3,-4.031710327E-3,9.250245057E-4
2.413381838E1,-1.047197584E-4,-4.974188283E-3,1.675516134E-3
2.415381682E1,-2.094394993E-3,-5.951572675E-3,1.692969352E-3
2.417381682E1,-6.108652451E-4,-5.724680144E-3,2.268928074E-4
2.419381838E1,-2.007128671E-3,-5.305801053E-3,3.839724232E-4
2.421381682E1,-2.967059612E-3,-2.111848444E-3,-5.410520826E-4
2.423381838E1,-3.804817796E-3,1.204277156E-3,1.919862116E-4
2.425381838E1,-2.548180753E-3,2.199114766E-3,2.094395168E-4
2.427381838E1,-3.700098023E-3,-5.410520826E-4,1.308996929E-3
2.429381838E1,-4.066617228E-3,-3.333578818E-3,7.853981806E-4
2.431381682E1,-7.382742595E-3,-1.291543595E-3,-6.108652451E-4
2.433381838E1,-7.766715251E-3,6.736970972E-3,7.155850180E-4
2.435381682E1,-9.861109778E-3,1.179842558E-2,9.075712296E-4
2.437381682E1,-8.848818950E-3,9.913469665E-3,9.948377265E-4
2.439381682E1,-6.265731994E-3,1.089085452E-2,-1.919862116E-4
2.441381838E1,-4.188790335E-4,1.160643995E-2,-2.827433404E-3
2.443381838E1,5.235987483E-4,9.337511845E-3,-2.652900526E-3
2.445381682E1,6.981316837E-4,1.726130582E-2,-1.937315450E-3
2.447381838E1,5.707226694E-3,2.813470736E-2,-3.769911127E-3
2.449381838E1,9.599310579E-4,2.003637888E-2,-4.241149873E-3
2.451381682E1,-4.886921961E-3,2.932153177E-3,-3.193952609E-3
2.453381682E1,-5.113814492E-3,-4.084070213E-3,-1.884955564E-3
2.455381838E1,1.343903481E-3,5.602506921E-3,-5.585053586E-4
2.457381838E1,6.649704650E-3,1.706931926E-2,7.330382941E-4
2.459381838E1,3.071779385E-3,1.563815027E-2,1.151917269E-3
2.461381838E1,-1.867502346E-3,7.888888009E-3,5.410520826E-4
2.463381682E1,-5.131267942E-3,7.941247895E-3,8.726646047E-5
2.465381682E1,-5.934119225E-3,6.963863503E-3,-9.250245057E-4
2.467381682E1,-4.590216093E-3,8.080874570E-3,-2.495820867E-3
2.469381838E1,-4.206243437E-3,8.115780540E-3,-1.134464052E-3
2.471381838E1,-3.892084118E-3,5.829399452E-3,5.235987919E-5
2.473381682E1,-1.029744279E-2,5.061454722E-4,-6.108652451E-4
2.475381682E1,-1.165879890E-2,5.881759338E-3,-2.495820867E-3
2.477381838E1,-5.934119225E-3,1.361356769E-2,-3.019419499E-3
2.479381838E1,-2.303834539E-3,1.703441329E-2,-4.258603323E-3
2.481381682E1,-3.630284918E-3,9.180432186E-3,-4.660028964E-3
2.483381838E1,-7.347836159E-3,4.625122529E-3,-6.632251199E-3
2.485381838E1,-3.926991019E-3,9.529497474E-3,-5.305801053E-3
2.487381838E1,-5.026548170E-3,1.356120780E-2,-5.358160939E-3
2.489381682E1,-5.707226694E-3,1.637118869E-2,-5.096361507E-3
2.491381838E1,-6.544984877E-3,1.825614460E-2,-3.141592722E-3
2.493381682E1,-4.921828397E-3,2.136282995E-2,-2.705260413E-3
2.495381682E1,-7.731808349E-3,1.951278187E-2,-1.082104165E-3
2.497381994E1,-7.312929723E-3,1.511455141E-2,-8.901178953E-4
2.499381682E1,-8.203047328E-3,1.331686229E-2,0.000000000E0
2.501381682E1,-7.853982039E-3,1.427679323E-2,-4.014257283E-4
2.503381682E1,-7.138396613E-3,1.123992074E-2,-2.373647876E-3
2.505381838E1,-8.639379404E-3,1.202531811E-2,-2.321287990E-3
2.507381838E1,-9.040805511E-3,1.446877979E-2,-4.084070213E-3
2.509381682E1,-7.400196046E-3,1.562069636E-2,-2.024581889E-3
2.511381838E1,-7.225662936E-3,1.769763790E-2,-2.356194425E-3
2.513381682E1,-5.393067375E-3,1.644100063E-2,-1.151917269E-3
2.515381682E1,-6.894050632E-3,1.092576142E-2,-1.605702913E-3
2.517381682E1,-6.789330859E-3,9.110618383E-3,-1.518436475E-3
2.519381838E1,-7.190756500E-3,8.831365965E-3,-1.745329209E-4
2.521381682E1,-6.126105785E-3,9.896016680E-3,-2.914699726E-3
2.523381682E1,-7.051130291E-3,1.188569237E-2,-2.356194425E-3
2.525381682E1,-6.352998316E-3,1.150172018E-2,-6.981316837E-4
2.527381838E1,-3.333578818E-3,1.092576142E-2,-1.239183708E-3
2.529381838E1,2.268928074E-4,1.068141498E-2,-1.850049011E-3
2.531381682E1,2.059488557E-3,5.113814492E-3,-3.159045940E-3
2.533381838E1,2.321287990E-3,9.512044489E-3,-1.221730490E-3
2.535381838E1,5.009094719E-3,2.515019476E-2,-1.134464052E-3
2.537381682E1,7.382742595E-3,2.549926005E-2,-1.239183708E-3
2.539381682E1,1.448623254E-3,6.736970972E-3,-1.832595677E-3
2.541381838E1,5.934119690E-4,-9.564404376E-3,2.443460980E-4
2.543381838E1,4.660028964E-3,-1.104793418E-2,1.989675453E-3
2.545381682E1,1.242674422E-2,-2.652900526E-3,2.478367416E-3
2.547381838E1,1.586504281E-2,1.204277156E-3,1.762782573E-3
2.549381838E1,1.054178830E-2,-4.782202188E-3,-7.679448463E-4
2.551381838E1,6.300638430E-3,-1.059414819E-2,-2.094395168E-4
2.553381682E1,5.235987715E-3,-1.118756086E-2,-1.047197497E-3
2.555381838E1,4.782202188E-3,-1.481784508E-2,3.839724232E-4
2.557381838E1,6.405358203E-3,-1.494001877E-2,1.431170036E-3
2.559381838E1,6.318091881E-3,-1.654572040E-2,2.495820867E-3
2.561381838E1,1.937315450E-3,-1.958259381E-2,4.537856148E-4
2.563381838E1,8.726646192E-4,-1.755801216E-2,6.283185212E-4
2.565381838E1,1.710422686E-3,-9.075712413E-3,1.012290944E-3
2.567381682E1,8.726646192E-3,-3.961897455E-3,0.000000000E0
2.569381838E1,9.965829551E-3,-1.068141498E-2,-1.204277156E-3
2.571381682E1,7.522369269E-3,-1.851794310E-2,-2.792526735E-3
2.573381682E1,7.784168236E-3,-1.734857261E-2,-1.535889693E-3
2.575381682E1,7.504915819E-3,-1.118756086E-2,-2.949606394E-3
2.577381838E1,6.387905218E-3,-1.242674422E-2,-1.535889693E-3
2.579381838E1,6.754423957E-3,-1.289798319E-2,-8.901178953E-4
2.581381682E1,6.003932562E-3,-1.387536712E-2,1.605702913E-3
2.583381838E1,5.916666240E-3,-1.584758982E-2,1.605702913E-3
2.585381838E1,4.834562074E-3,-1.799434423E-2,2.652900526E-3
2.587381682E1,4.345869645E-3,-1.851794310E-2,2.565633971E-3
2.589381682E1,4.572762642E-3,-1.701696031E-2,1.605702913E-3
2.591381838E1,5.078908056E-3,-1.745329238E-2,1.326450263E-3
2.593381838E1,2.844886621E-3,-1.858775690E-2,1.064650831E-3
2.595381682E1,1.239183708E-3,-1.605702937E-2,1.431170036E-3
2.597381838E1,3.176499158E-3,-1.560324337E-2,1.099557383E-3
2.599381838E1,3.298672382E-3,-1.574287005E-2,7.679448463E-4
2.601381682E1,3.054326167E-3,-1.345648803E-2,1.937315450E-3
2.603381682E1,2.827433404E-3,-1.780235767E-2,1.762782573E-3
2.605381838E1,5.410520826E-4,-1.930334233E-2,1.832595677E-3
2.607381838E1,8.203047328E-4,-1.635373570E-2,1.727875904E-3
2.609381682E1,-2.617993741E-4,-1.118756086E-2,1.431170036E-3
2.611381838E1,-1.099557383E-3,-8.237954229E-3,3.159045940E-3
2.613381838E1,1.972222002E-3,-8.621926419E-3,1.151917269E-3
2.615381838E1,5.619960371E-3,-8.150687441E-3,6.632251316E-4
2.617381682E1,6.963863503E-3,-1.132718660E-2,-1.762782573E-3
2.619381838E1,8.098327555E-3,-3.804817796E-3,5.934119690E-4
2.621381682E1,1.136209350E-2,8.587019518E-3,-4.188790335E-4
2.623381682E1,1.062905509E-2,9.948376566E-3,-1.745329209E-4
2.625381682E1,2.303834539E-3,-7.836528122E-3,9.424777818E-4
2.627381838E1,1.047197584E-4,-2.373647690E-2,2.391101094E-3
2.629381838E1,1.710422686E-3,-2.342231758E-2,2.408554312E-3
2.631381682E1,8.290314116E-3,-9.145525284E-3,2.216568217E-3
2.633381838E1,9.302604944E-3,-4.380776547E-3,1.832595677E-3
2.635381838E1,8.360126987E-3,-7.906341925E-3,1.082104165E-3
2.637381682E1,3.612831468E-3,-1.055924222E-2,6.283185212E-4
2.639381682E1,1.640609466E-3,-8.569566533E-3,-1.396263367E-3
2.641381838E1,7.679448463E-4,-9.843656793E-3,-7.853981806E-4
2.643381838E1,1.605702913E-3,-1.230457146E-2,-1.047197584E-4
2.645381682E1,2.338741207E-3,-1.120501384E-2,1.710422686E-3
2.647381994E1,-1.448623254E-3,-1.514945831E-2,2.024581889E-3
2.649381838E1,-3.787364578E-3,-1.425934024E-2,5.061454722E-4
2.651381682E1,-2.111848444E-3,-5.846852902E-3,2.094394993E-3
2.653381682E1,2.408554312E-3,-1.745329246E-5,1.204277156E-3
2.655381838E1,1.500983140E-3,-5.061454605E-3,-1.884955564E-3
2.657381682E1,7.504915702E-4,-1.164134592E-2,-3.665191354E-3
2.659381682E1,5.759586347E-4,-5.270894151E-3,-5.881759338E-3
2.661381838E1,2.373647876E-3,-2.042035107E-3,-4.415682983E-3
2.663381838E1,1.762782573E-3,-3.124139272E-3,-2.391101094E-3
2.665381682E1,1.745329209E-4,-4.677482415E-3,9.948377265E-4
2.667381682E1,1.221730490E-3,-4.520402756E-3,2.216568217E-3
2.669381838E1,2.443460980E-4,-2.216568217E-3,2.076941775E-3
2.671381682E1,2.443460980E-4,-3.857177682E-3,1.902408898E-3
2.673381682E1,-1.396263397E-4,-7.330382708E-3,9.773843922E-4
2.675381682E1,-1.500983140E-3,-7.051130291E-3,-5.061454722E-4
2.677381838E1,-3.857177682E-3,-7.941247895E-3,-3.665191471E-4
2.679381838E1,-8.901178953E-4,-6.126105785E-3,-9.075712296E-4
2.681381682E1,2.792526793E-4,-4.136430100E-3,-3.839724232E-4
2.683381838E1,1.134464052E-3,-5.166174378E-3,1.221730490E-4
2.685381682E1,-2.042035107E-3,-5.707226694E-3,-6.981316837E-4
2.687381682E1,-3.089232836E-3,-4.537856206E-3,9.250245057E-4
2.689381682E1,-8.726646047E-5,-5.515240598E-3,6.632251316E-4
2.691381838E1,-3.490658492E-5,-6.562437862E-3,2.949606394E-3
2.693381838E1,-5.759586347E-4,-8.482299745E-3,3.019419499E-3
2.695381682E1,-2.460914198E-3,-8.587019518E-3,2.827433404E-3
2.697381838E1,-2.775073517E-3,-4.433136433E-3,1.169370604E-3
2.699381838E1,-2.338741207E-3,-1.186823938E-3,1.675516134E-3
2.701381682E1,-1.675516134E-3,-2.094395168E-4,1.117010717E-3
2.703381682E1,-1.867502346E-3,-3.298672382E-3,1.972222002E-3
2.705381838E1,-9.773843922E-4,-2.862340072E-3,1.012290944E-3
2.707381838E1,1.605702913E-3,-9.599310579E-4,-9.075712296E-4
2.709381838E1,3.577925032E-3,-4.171337001E-3,-1.500983140E-3
2.711381838E1,6.998770405E-3,2.111848444E-3,-1.308996929E-3
2.713381838E1,1.218239777E-2,1.785471849E-2,-2.984513063E-3
2.715381682E1,5.846852902E-3,1.193805225E-2,4.537856148E-4
2.717381682E1,-1.012290944E-3,-1.167625282E-2,1.919862116E-4
2.719381838E1,-2.199114766E-3,-2.481858246E-2,1.762782573E-3
2.721381682E1,2.652900526E-3,-1.101302728E-2,1.483529806E-3
2.723381682E1,8.866272867E-3,6.161012221E-3,1.745329238E-3
2.725381682E1,6.754423957E-3,5.096361507E-3,7.155850180E-4
2.727381838E1,1.535889693E-3,-3.124139272E-3,9.773843922E-4
2.729381838E1,-1.274090377E-3,-2.565633971E-3,1.396263397E-4
2.731381682E1,-1.658062800E-3,-3.909537569E-3,2.967059845E-4
2.733381838E1,3.490658492E-5,-3.246312495E-3,-1.745329238E-3
2.735381682E1,8.377580671E-4,-1.815142459E-3,9.075712296E-4
2.737381682E1,1.396263367E-3,-4.782202188E-3,1.762782573E-3
2.739381682E1,-5.445427261E-3,-1.291543618E-2,3.630284918E-3
2.741381838E1,-5.654866807E-3,-7.574729156E-3,5.550147034E-3
2.743381838E1,-1.047197584E-4,4.118977115E-3,3.106686054E-3
2.745381682E1,2.146754880E-3,5.724680144E-3,7.504915702E-4
2.747381994E1,1.343903481E-3,-2.460914198E-3,0.000000000E0
2.749381838E1,-1.343903481E-3,-1.031489577E-2,-4.258603323E-3
2.751381682E1,-1.064650831E-3,-3.857177682E-3,-7.574729156E-3
2.753381682E1,-5.061454722E-4,7.504915702E-4,-6.824237294E-3
2.755381838E1,-2.513274085E-3,2.024581889E-3,-5.410520826E-3
2.757381682E1,-4.241149873E-3,2.932153177E-3,-2.094394993E-3
2.759381682E1,-4.084070213E-3,3.455751808E-3,1.745329246E-5
2.761381838E1,-4.328416660E-3,3.996803891E-3,2.844886621E-3
2.763381838E1,-3.892084118E-3,1.413716702E-3,1.745329238E-3
2.765381838E1,-4.607669078E-3,8.726646192E-4,1.029744279E-3
2.767381682E1,-2.111848444E-3,3.682644805E-3,-1.727875904E-3
2.769381838E1,-3.420845373E-3,1.106538717E-2,-1.623156248E-3
2.771381838E1,-6.894050632E-3,1.092576142E-2,-2.879793290E-3
2.773381838E1,-9.581857361E-3,8.185594343E-3,-3.036872949E-3
2.775381682E1,-9.529497474E-3,8.447393775E-3,-2.129301662E-3
2.777381838E1,-9.930923581E-3,1.026253588E-2,-3.106686054E-3
2.779381838E1,-9.459684603E-3,1.199041214E-2,-2.111848444E-3
2.781381682E1,-6.911503617E-3,1.460840553E-2,-2.844886621E-3
2.783381838E1,-8.587019518E-3,1.048942842E-2,-1.169370604E-3
2.785381682E1,-7.976154797E-3,8.726646192E-3,-1.954768784E-3
2.787381682E1,-8.412486874E-3,1.174606569E-2,-2.984513063E-3
2.789381682E1,-9.546951391E-3,1.748819835E-2,-3.403391922E-3
2.791381838E1,-1.031489577E-2,2.136282995E-2,-3.508111695E-3
2.793381838E1,-1.010545623E-2,2.029817924E-2,-1.692969352E-3
2.795381838E1,-7.819075137E-3,1.762782596E-2,-2.548180753E-3
2.797381838E1,-3.577925032E-3,1.509709843E-2,-2.652900526E-3
2.799381838E1,-2.705260413E-3,1.305506285E-2,-2.303834539E-3
2.801381682E1,-3.560471581E-3,2.316051908E-2,-2.565633971E-3
2.803381682E1,-1.274090377E-3,3.759439290E-2,-4.450589418E-3
2.805381838E1,-5.794493016E-3,3.378957510E-2,-5.480333697E-3
2.807381838E1,-1.117010694E-2,1.888446324E-2,-7.068583276E-3
2.809381838E1,-1.021017600E-2,6.370451767E-3,-3.804817796E-3
2.811381838E1,-2.478367416E-3,8.377579972E-3,-9.075712296E-4
2.813381838E1,-1.518436475E-3,2.066469751E-2,-2.321287990E-3
2.815381682E1,-1.378810150E-3,2.569124661E-2,-6.597344764E-3
2.817381682E1,-7.400196046E-3,2.272418700E-2,-5.567600485E-3
2.819381838E1,-1.162389293E-2,2.113593742E-2,-5.567600485E-3
2.821381682E1,-1.125737373E-2,1.897172816E-2,-4.817108624E-3
2.823381682E1,-8.447393775E-3,1.380555425E-2,-2.827433404E-3
2.825381682E1,-8.464846760E-3,1.598721556E-2,-2.513274085E-3
2.827381838E1,-8.691739291E-3,1.855284907E-2,-2.740166849E-3
2.829381838E1,-1.254891697E-2,1.612684131E-2,-4.363323096E-4
2.831381682E1,-1.247910410E-2,1.610938832E-2,1.221730490E-4
2.833381838E1,-4.241149873E-3,2.445206232E-2,1.623156248E-3
2.835381682E1,-3.892084118E-3,2.363175713E-2,-4.537856148E-4
2.837381682E1,-5.218534265E-3,1.788962446E-2,-2.862340072E-3
2.839381682E1,-6.405358203E-3,1.680752076E-2,-6.370451767E-3
2.841381838E1,-7.906341925E-3,2.143264376E-2,-8.464846760E-3
2.843381838E1,-8.639379404E-3,2.619739249E-2,-1.027998887E-2
2.845381682E1,-9.843656793E-3,2.572615258E-2,-8.447393775E-3
2.847381838E1,-8.499753661E-3,2.326523885E-2,-6.300638430E-3
2.849381838E1,-1.026253588E-2,2.010619268E-2,-4.642575979E-3
2.851381682E1,-1.150172018E-2,2.143264376E-2,-3.211405827E-3
2.853381682E1,-1.008800324E-2,2.186897583E-2,-1.064650831E-3
2.855381838E1,-1.106538717E-2,2.221804112E-2,7.679448463E-4
2.857381838E1,-1.066396199E-2,2.010619268E-2,1.745329246E-5
2.859381682E1,-1.110029407E-2,1.982693933E-2,-1.047197584E-4
2.861381838E1,-1.075122785E-2,2.366666496E-2,-1.448623254E-3
2.863381838E1,-8.255407214E-3,2.616248466E-2,-2.617993858E-3
2.865381682E1,-6.370451767E-3,2.783800103E-2,-2.408554312E-3
2.867381682E1,-8.342674002E-3,2.443460934E-2,-3.298672382E-3
2.869381838E1,-7.068583276E-3,2.872812003E-2,-2.268928103E-3
2.871381682E1,-9.686577134E-3,1.965240762E-2,-1.326450263E-3
2.873381682E1,-9.180432186E-3,1.867502369E-2,-7.853981806E-4
2.875381682E1,-1.132718660E-2,1.769763790E-2,-2.007128671E-3
2.877381838E1,-9.058258496E-3,1.549852360E-2,-9.773843922E-4
2.879381838E1,-3.543018363E-3,1.663298719E-2,-1.692969352E-3
2.881381682E1,7.330382941E-4,1.274090353E-2,-4.572762642E-3
2.883381838E1,4.118977115E-3,8.499753661E-3,-5.393067375E-3
2.885381682E1,1.989675453E-3,1.466076542E-2,-2.251474652E-3
2.887381682E1,5.009094719E-3,2.230530791E-2,-3.124139272E-3
2.889381682E1,4.747295752E-3,1.649336144E-2,-2.809980186E-3
2.891381838E1,1.762782573E-3,4.468042869E-3,-2.460914198E-3
2.893381838E1,1.727875904E-3,-7.138396613E-3,8.726646192E-4
2.895381682E1,9.669124149E-3,-1.525417715E-2,2.652900526E-3
2.897382150E1,1.576032303E-2,-1.108284108E-2,5.672320258E-3
2.899381838E1,1.679006778E-2,-6.859143730E-3,3.298672382E-3
2.901381682E1,1.335176919E-2,-8.360126987E-3,2.443460980E-3
2.903381682E1,8.988445625E-3,-1.179842558E-2,1.692969352E-3
2.905381838E1,5.009094719E-3,-1.384046115E-2,8.028514567E-4
2.907381838E1,6.457718089E-3,-1.797689125E-2,9.250245057E-4
2.909381838E1,7.609635592E-3,-1.762782596E-2,4.886921961E-4
2.911381838E1,9.791296907E-3,-2.263692021E-2,1.082104165E-3
2.913381838E1,7.120943163E-3,-2.553416602E-2,1.727875904E-3
2.915381682E1,6.161012221E-3,-2.307325229E-2,4.310963210E-3
2.917381682E1,8.360126987E-3,-1.399754081E-2,4.852015525E-3
2.919381838E1,1.059414819E-2,-1.340412907E-2,1.780235791E-3
2.921381682E1,1.085594762E-2,-1.576032303E-2,-4.886921961E-4
2.923381682E1,1.069886796E-2,-2.122320421E-2,-5.759586347E-4
2.925381682E1,1.333431527E-2,-2.073451132E-2,-7.155850180E-4
2.927381838E1,1.242674422E-2,-1.939060725E-2,-7.679448463E-4
2.929381838E1,1.036725566E-2,-2.045525797E-2,-2.443460980E-4
2.931381682E1,8.901178837E-3,-1.836086437E-2,1.099557383E-3
2.933381838E1,6.213372108E-3,-1.685987972E-2,2.879793290E-3
2.935381838E1,4.764748737E-3,-1.713913307E-2,3.874630900E-3
2.937381682E1,6.963863503E-3,-2.069960535E-2,3.525565146E-3
2.939381682E1,6.510077976E-3,-1.954768784E-2,3.577925032E-3
2.941381838E1,5.183627829E-3,-2.092649788E-2,2.303834539E-3
2.943381838E1,3.961897455E-3,-2.158972248E-2,1.151917269E-3
2.945381682E1,5.218534265E-3,-2.150245570E-2,-1.134464052E-3
2.947381838E1,5.602506921E-3,-2.003637888E-2,-1.797689125E-3
2.949381838E1,7.330382708E-3,-1.986184716E-2,5.585053586E-4
2.951381838E1,4.590216093E-3,-1.902408898E-2,1.710422686E-3
2.953381682E1,3.979350906E-3,-2.035053819E-2,2.216568217E-3
2.955381838E1,3.752457909E-3,-2.108357660E-2,3.438298590E-3
2.957381838E1,3.106686054E-3,-1.680752076E-2,4.468042869E-3
2.959381682E1,5.951572675E-3,-1.902408898E-2,5.427973811E-3
2.961381838E1,7.330382708E-3,-2.073451132E-2,3.385938704E-3
2.963381838E1,9.320057929E-3,-2.164208330E-2,3.298672382E-3
2.965381838E1,9.407324716E-3,-2.588323317E-2,1.954768784E-3
2.967381682E1,1.199041214E-2,-1.534144394E-2,2.391101094E-3
2.969381838E1,1.500983164E-2,-9.424777818E-4,2.199114766E-3
2.971381682E1,1.495747175E-2,1.431170036E-3,1.204277156E-3
2.973381682E1,6.946410518E-3,-1.485275198E-2,1.762782573E-3
2.975381682E1,3.996803891E-3,-3.101450019E-2,2.757620299E-3
2.977381838E1,6.998770405E-3,-3.344050795E-2,4.118977115E-3
2.979381838E1,1.165879890E-2,-2.162462845E-2,1.815142459E-3
2.981381682E1,1.326450240E-2,-1.062905509E-2,1.727875904E-3
2.983381838E1,8.726646192E-3,-1.518436428E-2,1.727875904E-3
2.985381838E1,5.707226694E-3,-1.603957638E-2,1.029744279E-3
2.987381682E1,1.954768784E-3,-1.160643995E-2,-9.773843922E-4
2.989381682E1,2.373647876E-3,-1.403244678E-2,6.981316837E-4
2.991381838E1,3.926991019E-3,-1.642354764E-2,7.330382941E-4
2.993381838E1,5.619960371E-3,-1.624901593E-2,7.330382941E-4
2.995381682E1,9.773843922E-4,-2.127556317E-2,1.710422686E-3
2.997381838E1,-2.792526735E-3,-1.909390278E-2,1.623156248E-3
2.999381838E1,4.363323096E-4,-1.082104165E-2,1.832595677E-3
3.001381838E1,6.789330859E-3,-3.595378250E-3,1.064650831E-3
3.003381682E1,5.393067375E-3,-9.686577134E-3,8.377580671E-4
3.005381838E1,2.146754880E-3,-1.565560326E-2,-6.981316837E-4
3.007381682E1,8.028514567E-4,-1.410226058E-2,-1.797689125E-3
3.009381682E1,9.250245057E-4,-8.429939859E-3,-1.483529806E-3
3.011381838E1,3.089232836E-3,-6.684611086E-3,6.632251316E-4
3.013381838E1,1.867502346E-3,-8.290314116E-3,2.967059612E-3
3.015381682E1,1.640609466E-3,-8.918632753E-3,3.944444004E-3
3.017381682E1,1.256637042E-3,-9.320057929E-3,4.066617228E-3
3.019381838E1,-1.570796361E-3,-8.918632753E-3,4.206243437E-3
3.021381682E1,1.396263397E-4,-6.405358203E-3,1.832595677E-3
3.023381682E1,2.443460980E-4,-8.552113548E-3,9.773843922E-4
3.025381682E1,4.712388909E-4,-9.599311277E-3,-1.047197584E-4
3.027381838E1,-7.330382941E-4,-1.239183731E-2,1.274090377E-3
3.029381838E1,-6.457717973E-4,-1.034980267E-2,1.727875904E-3
3.031381682E1,-1.029744279E-3,-7.400196046E-3,1.134464052E-3
3.033381838E1,-1.553343027E-3,-4.398229532E-3,1.762782573E-3
3.035381682E1,-1.099557383E-3,-6.056292448E-3,2.652900526E-3
3.037381682E1,-1.745329238E-3,-8.290314116E-3,1.762782573E-3
3.039381682E1,-1.710422686E-3,-1.281071641E-2,1.762782573E-3
3.041381838E1,-1.902408898E-3,-1.052433532E-2,1.291543595E-3
3.043381682E1,-1.570796361E-3,-4.241149873E-3,2.792526793E-4
3.045381682E1,-4.223696887E-3,-1.762782573E-3,1.675516134E-3
3.047381838E1,-3.106686054E-3,-4.729842301E-3,2.914699726E-3
3.049381682E1,-1.797689125E-3,-5.235987715E-3,1.762782573E-3
3.051381682E1,1.274090377E-3,-3.054326167E-3,6.981316837E-4
3.053381682E1,3.839724232E-3,4.188790335E-4,-1.221730490E-4
3.055381838E1,7.312929723E-3,9.302604944E-3,-1.745329209E-4
3.057381682E1,1.199041214E-2,1.757546514E-2,2.967059845E-4
3.059381682E1,3.926991019E-3,6.003932562E-3,-1.221730490E-4
3.061381682E1,-6.632251316E-4,-9.808750823E-3,2.059488557E-3
3.063381838E1,-2.460914198E-3,-2.153736353E-2,1.675516134E-3
3.065381682E1,1.919862116E-3,-1.247910410E-2,2.617993858E-3
3.067381682E1,3.996803891E-3,1.256637042E-3,6.283185445E-3
3.069381838E1,2.426007763E-3,4.101523664E-3,6.649704650E-3
3.071381682E1,1.343903481E-3,3.473205259E-3,2.583087189E-3
3.073381682E1,-8.726646192E-4,1.361356815E-3,2.967059612E-3
3.075381682E1,-8.726646047E-5,6.632251316E-4,2.548180753E-3
3.077381838E1,-1.221730490E-3,-3.647738136E-3,5.585053586E-4
3.079381838E1,-7.155850180E-4,-6.457717973E-4,-1.850049011E-3
3.081381682E1,1.396263397E-4,4.014257283E-4,-3.106686054E-3
3.083381838E1,-6.352998316E-3,-5.009094719E-3,-3.019419499E-3
3.085381682E1,-3.351032268E-3,-1.832595677E-3,-1.413716702E-3
3.087381682E1,-5.235987919E-5,1.954768784E-3,-5.585053586E-4
3.089381682E1,9.773843922E-4,1.431170036E-3,-8.203047328E-4
3.091381838E1,-1.431170036E-3,-3.804817796E-3,-1.151917269E-3
3.093381682E1,-2.426007763E-3,-3.228859045E-3,-3.473205259E-3
3.095381682E1,-2.268928074E-4,4.939281847E-3,-4.712388851E-3
3.097381838E1,-9.075712296E-4,1.017526910E-2,-3.351032268E-3
3.099381838E1,-1.692969352E-3,7.382742595E-3,-2.007128671E-3
3.101381682E1,-3.630284918E-3,6.143558770E-3,-2.443460980E-4
3.103381682E1,-3.490658477E-3,8.883725852E-3,9.250245057E-4
3.105381838E1,-3.560471581E-3,8.063420653E-3,0.000000000E0
3.107381682E1,-5.742133129E-3,4.625122529E-3,1.186823938E-3
3.109381682E1,-7.033676840E-3,7.923794910E-3,-1.221730490E-3
3.111381682E1,-6.475171540E-3,9.773843922E-3,-2.600540640E-3
3.113381838E1,-6.370451767E-3,8.604473434E-3,-1.745329238E-3
3.115381682E1,-8.342674002E-3,5.375613924E-3,-2.862340072E-3
3.117381682E1,-9.389871731E-3,6.387905218E-3,-4.450589418E-3
3.119382151E1,-8.464846760E-3,9.058258496E-3,-7.365289610E-3
3.121381682E1,-6.457718089E-3,1.328195538E-2,-6.544984877E-3
3.123381682E1,-5.585053470E-3,1.354375482E-2,-6.073745899E-3
3.125381682E1,-6.265731994E-3,9.738937020E-3,-4.607669078E-3
3.127381838E1,-8.290314116E-3,3.246312495E-3,-1.361356815E-3
3.129381838E1,-1.017526910E-2,5.742133129E-3,-1.780235791E-3
3.131381682E1,-1.249655709E-2,1.141445339E-2,-1.221730490E-3
3.133381838E1,-1.111774705E-2,1.893682219E-2,-2.216568217E-3
3.135381682E1,-1.117010694E-2,2.277654596E-2,-1.396263367E-3
3.137381682E1,-9.459684603E-3,1.956514083E-2,-9.250245057E-4
3.139381682E1,-8.464846760E-3,1.869247667E-2,-3.176499158E-3
3.141381838E1,-4.363323096E-3,1.858775690E-2,-3.996803891E-3
3.143381682E1,-3.351032268E-3,1.651081443E-2,-3.717551241E-3
3.145381682E1,-2.670353744E-3,2.836159989E-2,-3.612831468E-3
3.147381838E1,1.064650831E-3,4.232423380E-2,-5.270894151E-3
3.149381838E1,-3.333578818E-3,3.670427576E-2,-4.537856206E-3
3.151381682E1,-1.103048120E-2,2.000147291E-2,-2.617993858E-3
3.153381682E1,-1.089085452E-2,6.230825558E-3,-1.692969352E-3
3.155381838E1,-2.792526735E-3,9.738937020E-3,1.134464052E-3
3.157381682E1,1.151917269E-3,2.171189524E-2,-3.490658419E-4
3.159381682E1,0.000000000E0,2.741912194E-2,-2.984513063E-3
3.161381682E1,-6.719517522E-3,2.405063622E-2,-5.148721393E-3
3.163381838E1,-8.988445625E-3,2.120575123E-2,-4.363323096E-3
3.165381682E1,-1.085594762E-2,1.759291813E-2,-3.700098023E-3
3.167381682E1,-7.853982039E-3,1.514945831E-2,-2.129301662E-3
3.169381838E1,-7.958701812E-3,1.736602560E-2,-1.972222002E-3
3.171381682E1,-8.988445625E-3,1.645845547E-2,-4.398229532E-3
3.173381682E1,-1.190314535E-2,1.448623277E-2,-3.647738136E-3
3.175381682E1,-1.134464052E-2,1.459095255E-2,-3.647738136E-3
3.177381838E1,-5.270894151E-3,2.281145379E-2,-3.385938704E-3
3.179381838E1,-4.886921961E-3,2.490584925E-2,-5.410520826E-3
3.181381682E1,-6.230825558E-3,1.937315427E-2,-6.300638430E-3
3.183381838E1,-7.853982039E-3,1.822123677E-2,-6.719517522E-3
3.185381682E1,-6.300638430E-3,1.919862255E-2,-8.412486874E-3
3.187381682E1,-5.951572675E-3,2.151990868E-2,-8.534659632E-3
3.189381682E1,-7.086036727E-3,2.145009674E-2,-5.794493016E-3
3.191381838E1,-8.831365965E-3,2.171189524E-2,-6.126105785E-3
3.193381682E1,-8.045967668E-3,2.502802201E-2,-4.049163777E-3
3.195381682E1,-7.260569837E-3,2.495820820E-2,-2.042035107E-3
3.197381838E1,-9.686577134E-3,2.082177810E-2,-1.850049011E-3
3.199381838E1,-8.813912980E-3,1.830850355E-2,-7.853981806E-4
3.201381682E1,-9.145525284E-3,1.659808122E-2,-9.599310579E-4
3.203381682E1,-9.389871731E-3,1.832595654E-2,-2.181661548E-3
3.205381838E1,-6.195918657E-3,2.019345947E-2,-3.263765713E-3
3.207381682E1,-6.352998316E-3,1.937315427E-2,-2.356194425E-3
3.209381682E1,-6.387905218E-3,1.872738265E-2,-3.036872949E-3
3.211381682E1,-9.616764262E-3,1.965240762E-2,-2.042035107E-3
3.213381838E1,-9.337511845E-3,1.984439418E-2,-4.886921961E-4
3.215381682E1,-7.661995478E-3,2.268928103E-2,-1.884955564E-3
3.217381682E1,-8.726646192E-3,1.874483563E-2,-1.064650831E-3
3.219381838E1,-6.422811653E-3,2.410299703E-2,-2.338741207E-3
3.221381682E1,-5.235987715E-3,1.832595654E-2,-8.028514567E-4
3.223381682E1,-5.235987919E-5,1.137954649E-2,-2.705260413E-3
3.225381682E1,3.508111695E-3,7.853982039E-3,-2.199114766E-3
3.227381838E1,1.047197584E-4,1.691224054E-2,-8.203047328E-4
3.229381838E1,4.625122529E-3,2.897246554E-2,-1.029744279E-3
3.231381682E1,3.368485486E-3,2.647664398E-2,-2.024581889E-3
3.233381838E1,1.640609466E-3,1.281071641E-2,-1.483529806E-3
3.235381682E1,2.199114766E-3,-2.967059845E-4,1.134464052E-3
3.237381682E1,7.976154797E-3,-8.255407214E-3,2.076941775E-3
3.239381682E1,1.185078546E-2,-2.844886621E-3,1.762782573E-3
3.241381838E1,1.378810126E-2,0.000000000E0,1.466076588E-3
3.243381682E1,1.115265395E-2,-5.096361507E-3,1.134464052E-3
3.245381682E1,7.539822254E-3,-1.443387289E-2,1.954768784E-3
3.247381838E1,8.080874570E-3,-1.970476657E-2,2.513274085E-3
3.249381838E1,8.028514683E-3,-1.808161102E-2,2.076941775E-3
3.251381682E1,7.504915819E-3,-1.556833647E-2,1.396263367E-3
3.253381682E1,7.819075137E-3,-2.124065720E-2,1.500983140E-3
3.255381838E1,4.223696887E-3,-2.260201424E-2,1.378810150E-3
3.257381682E1,4.939281847E-3,-2.246238664E-2,1.099557383E-3
3.259381682E1,8.691739291E-3,-1.036725566E-2,1.082104165E-3
3.261381682E1,1.082104165E-2,-1.389282104E-2,-2.111848444E-3
3.263381838E1,1.108284108E-2,-1.890191622E-2,-3.298672382E-3
3.265381682E1,1.132718660E-2,-2.204350755E-2,-3.647738136E-3
3.267381682E1,1.246165112E-2,-2.035053819E-2,-3.228859045E-3
3.269381838E1,1.219985168E-2,-1.891936921E-2,-9.599310579E-4
3.271381682E1,1.019272301E-2,-1.891936921E-2,1.745329246E-5
3.273381682E1,8.988445625E-3,-1.689478755E-2,1.727875904E-3
3.275381682E1,8.604473434E-3,-1.513200440E-2,2.862340072E-3
3.277381838E1,7.731808349E-3,-1.572541706E-2,4.066617228E-3
3.279381838E1,7.347836159E-3,-1.864011586E-2,5.375613924E-3
3.281381682E1,5.654866807E-3,-1.994911395E-2,4.660028964E-3
3.283381838E1,4.380776547E-3,-2.076941729E-2,3.979350906E-3
3.285381682E1,5.585053470E-3,-2.031563222E-2,3.577925032E-3
3.287381682E1,5.585053470E-3,-1.911135577E-2,7.155850180E-4
3.289381682E1,6.318091881E-3,-1.987930015E-2,9.424777818E-4
3.291381838E1,3.717551241E-3,-1.715658605E-2,1.396263367E-3
3.293381682E1,3.577925032E-3,-1.696459949E-2,1.204277156E-3
3.295381682E1,1.745329238E-3,-1.692969352E-2,2.391101094E-3
3.297381838E1,2.443460980E-3,-1.724385284E-2,3.839724232E-3
3.299381838E1,5.026548170E-3,-1.712168008E-2,3.717551241E-3
3.301381682E1,5.707226694E-3,-1.729621366E-2,3.333578818E-3
3.303381682E1,6.702064537E-3,-1.752310619E-2,3.612831468E-3
3.305381838E1,1.104793418E-2,-2.305579931E-2,1.012290944E-3
3.307381838E1,1.213003788E-2,-1.740093343E-2,8.203047328E-4
3.309381838E1,1.214749180E-2,-1.745329209E-4,5.934119690E-4
3.311381682E1,1.544616371E-2,8.133234456E-3,2.007128671E-3
3.313381838E1,8.063420653E-3,-7.347836159E-3,1.274090377E-3
3.315381682E1,5.585053470E-3,-2.679080330E-2,1.256637042E-3
3.317381682E1,6.824237294E-3,-3.462733328E-2,2.181661548E-3
3.319381838E1,1.167625282E-2,-2.574360557E-2,2.129301662E-3
3.321381682E1,1.504473854E-2,-1.490511186E-2,3.159045940E-3
3.323381682E1,1.073377486E-2,-1.439896598E-2,1.448623254E-3
3.325381682E1,6.143558770E-3,-1.497492474E-2,1.850049011E-3
3.327381838E1,4.485496320E-3,-1.396263391E-2,9.948377265E-4
3.329381994E1,3.420845373E-3,-1.663298719E-2,9.250245057E-4
3.331381682E1,3.281218931E-3,-2.080432512E-2,1.780235791E-3
3.333381838E1,3.071779385E-3,-2.316051908E-2,4.782202188E-3
3.335381838E1,8.028514567E-4,-2.619739249E-2,8.063420653E-3
3.337381682E1,-2.600540640E-3,-2.005383372E-2,8.290314116E-3
3.339381682E1,1.919862116E-4,-6.021386012E-3,6.963863503E-3
3.341381838E1,4.084070213E-3,-3.490658492E-5,4.171337001E-3
3.343381838E1,4.415682983E-3,-9.721484035E-3,2.111848444E-3
3.345381682E1,2.862340072E-3,-1.768018492E-2,-1.361356815E-3
3.347381838E1,2.373647876E-3,-1.521927118E-2,-3.089232836E-3
3.349381838E1,2.373647876E-3,-6.754423957E-3,-4.729842301E-3
3.351381682E1,5.044001620E-3,-4.206243437E-3,-3.787364578E-3
3.353381682E1,4.450589418E-3,-7.679448463E-3,5.061454722E-4
3.355381838E1,2.513274085E-3,-1.160643995E-2,2.199114766E-3
3.357381838E1,1.902408898E-3,-1.281071641E-2,3.368485486E-3
3.359381838E1,6.632251316E-4,-1.129228063E-2,1.902408898E-3
3.361381682E1,8.203047328E-4,-9.162978269E-3,2.164208330E-3
3.363381838E1,1.221730490E-3,-1.059414819E-2,1.780235791E-3
3.365381682E1,8.377580671E-4,-1.350884791E-2,3.298672382E-3
3.367381682E1,1.466076588E-3,-1.462585945E-2,2.426007763E-3
3.369381838E1,1.117010717E-3,-1.329940930E-2,2.094394993E-3
3.371381838E1,2.094395168E-4,-9.634217247E-3,1.308996929E-3
3.373381682E1,6.981316983E-5,-9.407324716E-3,1.274090377E-3
3.375381682E1,3.490658419E-4,-9.477137588E-3,3.560471581E-3
3.377381838E1,1.692969352E-3,-1.197295822E-2,3.874630900E-3
3.379381838E1,8.552113432E-4,-1.521927118E-2,5.846852902E-3
3.381381682E1,8.377580671E-4,-1.350884791E-2,4.415682983E-3
3.383381838E1,-1.658062800E-3,-1.483529899E-2,2.600540640E-3
3.385381838E1,8.726646047E-5,-7.295476273E-3,1.134464052E-3
3.387381682E1,-2.146754880E-3,-6.178465672E-3,8.203047328E-4
3.389381682E1,-1.919862116E-4,-6.405358203E-3,8.726646192E-4
3.391381838E1,9.424777818E-4,-5.497787148E-3,9.424777818E-4
3.393381838E1,2.426007763E-3,-5.550147034E-3,-3.141592606E-4
3.395381682E1,4.153883550E-3,-8.098327555E-3,3.839724232E-4
3.397381994E1,6.736970972E-3,4.014257283E-4,1.117010717E-3
3.399381838E1,1.420698036E-2,1.631882787E-2,7.853981806E-4
3.401381682E1,9.599311277E-3,1.295034308E-2,1.500983140E-3
3.403381682E1,9.250245057E-4,-5.881759338E-3,2.548180753E-3
3.405381838E1,-5.934119690E-4,-2.457423508E-2,1.518436475E-3
3.407381682E1,3.717551241E-3,-1.808161102E-2,1.972222002E-3
3.409381682E1,8.674286306E-3,-3.316125658E-4,1.692969352E-3
3.411381682E1,8.813912980E-3,2.862340072E-3,1.117010717E-3
3.413381838E1,4.642575979E-3,-4.293509759E-3,1.291543595E-3
3.415381838E1,9.948377265E-4,-4.468042869E-3,2.181661548E-3
3.417381682E1,-1.029744279E-3,-3.193952609E-3,1.169370604E-3
3.419381838E1,-1.396263397E-4,-4.206243437E-3,-8.726646047E-5
3.421381838E1,8.203047328E-4,-3.001966281E-3,7.679448463E-4
3.423381682E1,9.424777818E-4,-2.426007763E-3,1.308996929E-3
3.425381682E1,-2.775073517E-3,-6.335545331E-3,1.204277156E-3
3.427381838E1,-3.857177682E-3,-5.689773243E-3,1.745329238E-3
3.429381838E1,1.221730490E-4,3.839724232E-4,4.188790335E-4
3.431381682E1,9.599310579E-4,3.246312495E-3,-3.665191471E-4
3.433381838E1,7.330382941E-4,1.483529806E-3,-4.084070213E-3
3.435381838E1,-2.164208330E-3,-1.396263367E-3,-5.270894151E-3
3.437381682E1,-5.585053586E-4,8.726646192E-4,-7.574729156E-3
3.439381682E1,3.316125658E-4,5.393067375E-3,-5.375613924E-3
3.441381838E1,-7.504915702E-4,3.420845373E-3,-2.443460980E-3
3.443381838E1,-4.537856206E-3,1.919862116E-3,1.745329246E-5
3.445381682E1,-3.455751808E-3,4.625122529E-3,1.553343027E-3
3.447381838E1,-3.717551241E-3,7.627088577E-3,1.413716702E-3
3.449381838E1,-3.926991019E-3,7.033676840E-3,1.762782573E-3
3.451381838E1,-6.213372108E-3,7.539822254E-3,7.679448463E-4
3.453381682E1,-6.405358203E-3,9.389871731E-3,1.745329246E-5
3.455381838E1,-7.522369269E-3,8.115780540E-3,-1.692969352E-3
3.457381682E1,-8.988445625E-3,6.702064537E-3,-2.914699726E-3
3.459381682E1,-7.958701812E-3,9.948376566E-3,-1.117010717E-3
3.461381682E1,-8.517206647E-3,1.099557430E-2,-3.106686054E-3
3.463381838E1,-1.010545623E-2,1.129228063E-2,-4.974188283E-3
3.465381682E1,-1.202531811E-2,8.185594343E-3,-4.572762642E-3
3.467381682E1,-8.080874570E-3,6.318091881E-3,-3.700098023E-3
3.469381838E1,-8.656833321E-3,8.691739291E-3,-1.082104165E-3
3.471381682E1,-7.208209950E-3,9.494591504E-3,-1.029744279E-3
3.473381682E1,-9.005898610E-3,1.239183731E-2,2.094395168E-4
3.475381682E1,-1.026253588E-2,1.361356769E-2,1.396263367E-3
3.477381838E1,-9.965829551E-3,1.813396998E-2,7.330382941E-4
3.479381838E1,-1.148426626E-2,2.227040194E-2,-1.326450263E-3
3.481381682E1,-1.153662615E-2,2.251474746E-2,-2.408554312E-3
3.483381838E1,-8.761553094E-3,1.954768784E-2,-4.223696887E-3
3.485381838E1,-5.270894151E-3,1.401499379E-2,-5.811946467E-3
3.487381838E1,-1.954768784E-3,1.371828746E-2,-4.345869645E-3
3.489381682E1,-1.867502346E-3,2.942625061E-2,-3.595378250E-3
3.491381838E1,5.410520826E-4,4.389503226E-2,-3.804817796E-3
3.493381838E1,-6.492624991E-3,3.682644665E-2,-4.660028964E-3
3.495381682E1,-1.113520097E-2,1.890191622E-2,-3.769911127E-3
3.497381838E1,-9.773843922E-3,9.581857361E-3,-2.844886621E-3
3.499381838E1,-4.380776547E-3,1.518436428E-2,-1.204277156E-3
3.501381682E1,-6.806784077E-4,2.631956525E-2,-1.850049011E-3
3.503381682E1,-2.076941775E-3,2.825688012E-2,-2.984513063E-3
3.505381838E1,-6.213372108E-3,2.352703735E-2,-3.682644805E-3
3.507381682E1,-9.459684603E-3,2.064724453E-2,-3.420845373E-3
3.509381682E1,-1.071632188E-2,1.663298719E-2,-2.321287990E-3
3.511381682E1,-8.936085738E-3,1.570796408E-2,-3.071779385E-3
3.513381838E1,-8.168140426E-3,1.668534800E-2,-1.466076588E-3
3.515381682E1,-6.510077976E-3,1.377064735E-2,-5.410520826E-4
3.517381682E1,-1.218239777E-2,9.494591504E-3,-1.361356815E-3
3.519381994E1,-9.337511845E-3,1.233947743E-2,-7.853981806E-4
3.521381682E1,-3.455751808E-3,2.347467840E-2,-3.246312495E-3
3.523381838E1,-2.338741207E-3,2.439970337E-2,-4.572762642E-3
3.525381682E1,-3.926991019E-3,1.691224054E-2,-5.567600485E-3
3.527381838E1,-5.148721393E-3,1.384046115E-2,-7.435102481E-3
3.529381838E1,-4.415682983E-3,1.621410809E-2,-7.801621687E-3
3.531381682E1,-6.352998316E-3,2.010619268E-2,-4.345869645E-3
3.533381838E1,-8.360126987E-3,2.026327327E-2,-3.298672382E-3
3.535381682E1,-5.969026126E-3,1.973967440E-2,-1.692969352E-3
3.537381838E1,-7.644542027E-3,1.944296807E-2,-1.291543595E-3
3.539381682E1,-8.168140426E-3,1.989675313E-2,7.853981806E-4
3.541381838E1,-8.080874570E-3,1.912880875E-2,-5.235987483E-4
3.543381838E1,-6.946410518E-3,1.560324337E-2,-2.478367416E-3
3.545381682E1,-8.464846760E-3,1.265363675E-2,-2.548180753E-3
3.547381838E1,-7.539822254E-3,1.195550524E-2,-1.640609466E-3
3.549381838E1,-2.879793290E-3,1.001818944E-2,-7.504915702E-4
3.551381838E1,-1.762782573E-3,1.097812131E-2,1.308996929E-3
3.553381682E1,-1.989675453E-3,1.174606569E-2,3.333578818E-3
3.555381838E1,-2.478367416E-3,1.282817032E-2,2.303834539E-3
3.557381682E1,-2.722713631E-3,8.883725852E-3,2.076941775E-3
3.559381682E1,9.599310579E-4,3.455751808E-3,2.321287990E-3
3.561381682E1,6.283185212E-4,-3.193952609E-3,2.076941775E-3
3.563381838E1,1.518436475E-3,-8.080874570E-3,1.012290944E-3
3.565381838E1,6.108652335E-3,-5.916666240E-3,-1.850049011E-3
3.567381838E1,9.302604944E-3,-1.001818944E-2,-3.682644805E-3
3.569381838E1,1.026253588E-2,-1.780235767E-2,-1.396263367E-3
3.571381838E1,9.686577134E-3,-1.200786512E-2,1.151917269E-3
3.573381838E1,1.225221157E-2,2.094395168E-4,2.635447076E-3
3.575381682E1,1.364847459E-2,4.014257283E-4,2.268928103E-3
3.577381838E1,9.808750823E-3,-1.411971357E-2,2.460914198E-3
3.579381838E1,8.080874570E-3,-2.686061710E-2,5.672320258E-3
3.581381682E1,1.176351868E-2,-2.918190509E-2,5.445427261E-3
3.583381838E1,1.464331243E-2,-1.665044017E-2,4.782202188E-3
3.585381838E1,1.436406001E-2,-1.206022501E-2,1.815142459E-3
3.587381682E1,1.108284108E-2,-1.525417715E-2,8.203047328E-4
3.589381682E1,7.539822254E-3,-1.499237865E-2,1.169370604E-3
3.591381838E1,7.888888009E-3,-1.670280099E-2,1.762782573E-3
3.593381838E1,8.028514683E-3,-2.111848444E-2,1.762782573E-3
3.595381838E1,7.784168236E-3,-2.148500271E-2,2.391101094E-3
3.597381838E1,6.195918657E-3,-2.364921197E-2,5.061454722E-4
3.599381838E1,3.543018363E-3,-2.698278986E-2,2.443460980E-4
3.601381682E1,1.727875904E-3,-2.431243658E-2,1.047197497E-3
3.603381682E1,5.585053470E-3,-1.251401100E-2,2.652900526E-3
3.605381838E1,8.203047328E-3,-1.233947743E-2,2.600540640E-3
3.607381838E1,7.958701812E-3,-1.651081443E-2,2.042035107E-3
3.609381682E1,6.283185445E-3,-2.035053819E-2,1.326450263E-3
3.611381682E1,8.203047328E-3,-1.761037298E-2,1.658062800E-3
3.613381838E1,7.435102481E-3,-1.415462047E-2,1.326450263E-3
3.615381838E1,8.517206647E-3,-2.096140385E-2,1.361356815E-3
3.617381682E1,7.295476273E-3,-1.565560326E-2,1.012290944E-3
3.619381838E1,5.986479111E-3,-1.809906401E-2,2.495820867E-3
3.621381682E1,6.422811653E-3,-2.213077433E-2,1.762782573E-3
3.623381838E1,6.806783844E-3,-2.303834632E-2,3.909537569E-3
3.625381682E1,5.166174378E-3,-2.282890677E-2,5.096361507E-3
3.627381838E1,4.485496320E-3,-2.267182618E-2,5.654866807E-3
3.629381838E1,2.146754880E-3,-2.284635976E-2,5.829399452E-3
3.631381838E1,2.059488557E-3,-2.113593742E-2,4.852015525E-3
3.633381838E1,2.426007763E-3,-1.926843449E-2,4.607669078E-3
3.635381838E1,3.333578818E-3,-1.530653704E-2,3.647738136E-3
3.637381682E1,4.886921961E-3,-1.502728462E-2,4.328416660E-3
3.639381682E1,2.391101094E-3,-1.811651699E-2,5.759586580E-3
3.641381838E1,1.291543595E-3,-2.336995862E-2,6.527531426E-3
3.643381838E1,1.623156248E-3,-2.576106042E-2,6.335545331E-3
3.645381682E1,1.308996929E-3,-2.309070528E-2,5.061454605E-3
3.647381682E1,1.832595677E-3,-1.898918301E-2,5.323254038E-3
3.649381838E1,1.832595677E-3,-1.577777602E-2,4.799655639E-3
3.651381682E1,1.658062800E-3,-1.401499379E-2,3.944444004E-3
3.653381682E1,4.991641734E-3,-1.432915311E-2,1.396263367E-3
3.655381994E1,8.185594343E-3,-1.054178830E-2,1.151917269E-3
3.657381682E1,7.819075137E-3,4.886921961E-3,1.361356815E-3
3.659381682E1,1.284562331E-2,1.513200440E-2,1.396263397E-4
3.661381682E1,6.510077976E-3,1.535889693E-3,5.061454722E-4
3.663381838E1,-1.064650831E-3,-2.010619268E-2,3.490658419E-4
3.665381838E1,9.250245057E-4,-2.654645778E-2,2.356194425E-3
3.667381682E1,5.811946467E-3,-1.670280099E-2,3.071779385E-3
3.669381838E1,7.382742595E-3,-6.667157635E-3,6.440265104E-3
3.671381838E1,4.380776547E-3,-6.841690745E-3,4.555309191E-3
3.673381682E1,2.949606394E-3,-9.896016680E-3,1.099557383E-3
3.675381682E1,5.061454722E-4,-6.352998316E-3,-1.134464052E-3
3.677381838E1,7.853981806E-4,-5.899212789E-3,-3.839724232E-4
3.679381838E1,1.797689125E-3,-7.888888009E-3,1.640609466E-3
3.681381838E1,2.391101094E-3,-8.936085738E-3,3.926991019E-3
3.683381838E1,1.378810150E-3,-9.494591504E-3,4.747295752E-3
3.685381838E1,-5.166174378E-3,-1.190314535E-2,6.440265104E-3
3.687381682E1,-3.438298590E-3,-8.011061698E-3,4.764748737E-3
3.689381682E1,2.181661548E-3,1.082104165E-3,2.356194425E-3
3.691381838E1,2.583087189E-3,1.029744279E-3,1.047197497E-3
3.693381682E1,1.745329209E-4,-5.777040031E-3,-5.410520826E-4
3.695381838E1,1.151917269E-3,-8.691739291E-3,-2.775073517E-3
3.697381682E1,1.535889693E-3,-5.061454605E-3,-2.583087189E-3
3.699381838E1,2.617993858E-3,-5.410520826E-4,-6.981316837E-4
3.701381682E1,1.064650831E-3,-1.239183708E-3,1.169370604E-3
3.703381682E1,1.082104165E-3,-2.809980186E-3,1.745329238E-3
3.705381838E1,-1.274090377E-3,-2.652900526E-3,2.268928103E-3
3.707381682E1,-1.413716702E-3,-1.692969352E-3,1.064650831E-3
3.709381682E1,-2.443460980E-4,-1.326450263E-3,3.316125658E-4
3.711381682E1,-1.186823938E-3,-6.108652451E-4,4.188790335E-4
3.713381838E1,-3.141592722E-3,-7.853981806E-4,4.014257283E-4
3.715381838E1,-3.630284918E-3,-2.059488557E-3,-7.679448463E-4
3.717381682E1,-2.757620299E-3,1.099557383E-3,-1.570796303E-4
3.719381838E1,-2.268928103E-3,3.525565146E-3,-3.316125658E-4
3.721381838E1,-6.562437862E-3,3.577925032E-3,8.726646047E-5
3.723381838E1,-7.749261800E-3,5.358160939E-3,1.308996929E-3
3.725381682E1,-8.150687441E-3,8.011061698E-3,-2.094395168E-4
3.727381838E1,-6.946410518E-3,9.826203808E-3,0.000000000E0
3.729381994E1,-7.086036727E-3,7.731808349E-3,-1.082104165E-3
3.731381682E1,-7.819075137E-3,7.714355364E-3,-1.274090377E-3
3.733381838E1,-8.255407214E-3,9.808750823E-3,-2.059488557E-3
3.735381838E1,-6.562437862E-3,1.403244678E-2,-3.176499158E-3
3.737381838E1,-9.634217247E-3,1.485275198E-2,-2.862340072E-3
3.739381838E1,-8.988445625E-3,1.521927118E-2,-1.413716702E-3
3.741381838E1,-7.120943163E-3,1.324704941E-2,-3.228859045E-3
3.743381682E1,-3.403391922E-3,1.293289009E-2,-4.660028964E-3
3.745381682E1,-1.134464052E-3,1.295034308E-2,-4.066617228E-3
3.747381682E1,5.410520826E-4,2.265437320E-2,-2.356194425E-3
3.749381838E1,3.246312495E-3,3.698352724E-2,-3.735004691E-3
3.751381682E1,-8.726646192E-4,3.286454827E-2,-3.159045940E-3
3.753381682E1,-8.063420653E-3,1.649336144E-2,-3.822271014E-3
3.755381838E1,-9.878563695E-3,2.356194425E-3,-2.792526735E-3
3.757381682E1,-2.530727303E-3,4.153883550E-3,-1.047197497E-3
3.759381838E1,-4.014257283E-4,1.780235767E-2,-1.291543595E-3
3.761381682E1,-1.518436475E-3,2.193878777E-2,-2.478367416E-3
3.763381838E1,-7.696901914E-3,1.940806210E-2,-3.019419499E-3
3.765381838E1,-1.038470864E-2,1.862266287E-2,-3.228859045E-3
3.767381682E1,-8.045967668E-3,1.619665511E-2,-2.879793290E-3
3.769381838E1,-8.691739291E-3,1.254891697E-2,-3.455751808E-3
3.771381682E1,-6.527531426E-3,1.389282104E-2,-3.508111695E-3
3.773381682E1,-5.969026126E-3,1.432915311E-2,-5.096361507E-3
3.775381682E1,-1.146681327E-2,1.129228063E-2,-4.031710327E-3
3.777381838E1,-1.057669520E-2,1.136209350E-2,-2.373647876E-3
3.779381838E1,-5.253441166E-3,1.883210242E-2,-1.029744279E-3
3.781381682E1,-3.263765713E-3,2.127556317E-2,-1.291543595E-3
3.783381838E1,-5.253441166E-3,1.672025397E-2,-2.303834539E-3
3.785381838E1,-5.899212789E-3,1.359611470E-2,-4.747295752E-3
3.787381838E1,-3.577925032E-3,1.886700839E-2,-5.829399452E-3
3.789381682E1,-3.717551241E-3,1.996656694E-2,-6.300638430E-3
3.791381838E1,-6.073745899E-3,1.651081443E-2,-5.829399452E-3
3.793381682E1,-6.667157635E-3,1.656317525E-2,-4.869468510E-3
3.795381682E1,-4.590216093E-3,1.909390278E-2,-3.368485486E-3
3.797381682E1,-4.363323096E-3,1.668534800E-2,-1.396263397E-4
3.799381838E1,-6.614797749E-3,1.595230959E-2,1.535889693E-3
3.801381838E1,-5.585053470E-3,1.413716655E-2,1.186823938E-3
3.803381682E1,-8.970992640E-3,1.567305624E-2,-2.967059845E-4
3.805381838E1,-9.285151958E-3,1.729621366E-2,-2.111848444E-3
3.807381682E1,-7.644542027E-3,1.769763790E-2,-2.111848444E-3
3.809381838E1,-7.592182141E-3,1.567305624E-2,-3.874630900E-3
3.811381682E1,-5.305801053E-3,1.382300723E-2,-4.764748737E-3
3.813381838E1,-7.103490178E-3,1.118756086E-2,-5.410520826E-3
3.815381838E1,-1.022762898E-2,1.069886796E-2,-3.874630900E-3
3.817381682E1,-8.883725852E-3,1.050688233E-2,-4.014257283E-4
3.819381838E1,-8.796459064E-3,1.185078546E-2,1.291543595E-3
3.821381682E1,-8.220500313E-3,1.186823845E-2,2.338741207E-3
3.823381682E1,-7.644542027E-3,1.455604564E-2,2.862340072E-3
3.825381682E1,-4.799655639E-3,1.947787404E-2,1.954768784E-3
3.827381838E1,-2.391101094E-3,1.600466855E-2,-1.396263397E-4
3.829381838E1,5.235987483E-4,1.021017600E-2,-7.330382941E-4
3.831381682E1,-8.726646192E-4,1.569050923E-2,-1.448623254E-3
3.833381838E1,9.075712296E-4,3.152064607E-2,-2.600540640E-3
3.835381838E1,9.948377265E-4,3.396410868E-2,-4.520402756E-3
3.837381838E1,-3.281218931E-3,1.958259381E-2,-2.199114766E-3
3.839381682E1,-3.909537569E-3,1.553343027E-3,-4.188790335E-4
3.841381838E1,6.457717973E-4,-3.106686054E-3,-2.792526793E-4
3.843381682E1,5.026548170E-3,4.031710327E-3,1.012290944E-3
3.845381682E1,6.998770405E-3,9.110618383E-3,-2.652900526E-3
3.847381682E1,5.131267942E-3,4.625122529E-3,-2.129301662E-3
3.849381838E1,3.263765713E-3,-1.745329246E-5,-1.448623254E-3
3.851381682E1,4.049163777E-3,-6.632251199E-3,-1.378810150E-3
3.853381838E1,6.440265104E-3,-1.239183731E-2,9.424777818E-4
3.855381838E1,5.829399452E-3,-1.513200440E-2,2.076941775E-3
3.857381838E1,8.237954229E-3,-1.837831736E-2,3.036872949E-3
3.859381838E1,5.881759338E-3,-2.342231758E-2,3.630284918E-3
3.861381682E1,4.276056774E-3,-2.131047100E-2,4.660028964E-3
3.863381838E1,8.011061698E-3,-9.512044489E-3,4.956734832E-3
3.865381838E1,9.354964830E-3,-1.080358773E-2,1.972222002E-3
3.867381682E1,1.085594762E-2,-1.576032303E-2,6.806784077E-4
3.869381838E1,1.118756086E-2,-2.022836544E-2,-1.151917269E-3
3.871381682E1,1.240929123E-2,-1.792453043E-2,1.396263397E-4
3.873381682E1,1.132718660E-2,-1.609193534E-2,3.665191471E-4
3.875381682E1,6.771877408E-3,-1.755801216E-2,5.410520826E-4
3.877381838E1,6.178465672E-3,-1.616174914E-2,1.221730490E-3
3.879381838E1,5.934119225E-3,-1.579522900E-2,2.513274085E-3
3.881381682E1,7.225662936E-3,-1.528908405E-2,4.345869645E-3
3.883381838E1,7.557275705E-3,-1.801179722E-2,4.258603323E-3
3.885381838E1,5.951572675E-3,-2.172934823E-2,4.625122529E-3
3.887381838E1,3.961897455E-3,-2.195624262E-2,5.113814492E-3
3.889381682E1,3.193952609E-3,-2.260201424E-2,3.979350906E-3
3.891381838E1,6.003932562E-3,-1.731366664E-2,2.548180753E-3
3.893381682E1,6.021386012E-3,-1.631882787E-2,2.635447076E-3
3.895381838E1,5.131267942E-3,-1.921607554E-2,3.281218931E-3
3.897381682E1,3.036872949E-3,-1.986184716E-2,3.159045940E-3
3.899381838E1,2.234021435E-3,-2.069960535E-2,3.106686054E-3
3.901381682E1,4.729842301E-3,-1.839577034E-2,3.979350906E-3
3.903381682E1,4.101523664E-3,-2.028072625E-2,7.190756500E-3
3.905381838E1,7.906341925E-3,-2.200860158E-2,8.168140426E-3
3.907381838E1,7.836528122E-3,-2.429498360E-2,7.871435024E-3
3.909381682E1,8.395033889E-3,-2.459168993E-2,5.340707488E-3
3.911381682E1,9.093165398E-3,-2.551671304E-2,3.752457909E-3
3.913381838E1,8.639379404E-3,-1.117010694E-2,3.246312495E-3
3.915381838E1,1.525417715E-2,4.031710327E-3,1.919862116E-3
3.917381682E1,1.387536712E-2,1.396263367E-3,1.972222002E-3
3.919381838E1,7.033676840E-3,-1.870992966E-2,2.949606394E-3
3.921381682E1,2.827433404E-3,-3.467969224E-2,3.455751808E-3
3.923381838E1,8.744099177E-3,-2.813470736E-2,3.560471581E-3
3.925381682E1,1.359611470E-2,-1.591740362E-2,3.211405827E-3
3.927381838E1,1.286307629E-2,-1.106538717E-2,2.426007763E-3
3.929381838E1,1.085594762E-2,-1.596976258E-2,2.164208330E-3
3.931381682E1,2.827433404E-3,-1.682497375E-2,1.518436475E-3
3.933381838E1,1.972222002E-3,-1.635373570E-2,1.204277156E-3
3.935381838E1,3.228859045E-3,-1.378810126E-2,1.710422686E-3
3.937381682E1,4.066617228E-3,-1.219985168E-2,2.076941775E-3
3.939381682E1,2.391101094E-3,-1.562069636E-2,2.478367416E-3
3.941381838E1,-2.513274085E-3,-2.076941729E-2,4.049163777E-3
3.943381838E1,-2.757620299E-3,-1.525417715E-2,3.944444004E-3
3.945381682E1,1.727875904E-3,-5.393067375E-3,5.323254038E-3
3.947381682E1,3.525565146E-3,-2.583087189E-3,1.780235791E-3
3.949381838E1,2.722713631E-3,-8.709193207E-3,-3.839724232E-4
3.951381682E1,1.186823938E-3,-1.129228063E-2,-3.106686054E-3
3.953381682E1,2.042035107E-3,-7.086036727E-3,-2.216568217E-3
3.955381838E1,1.047197497E-3,-3.612831468E-3,-2.408554312E-3
3.957381682E1,2.146754880E-3,-4.310963210E-3,2.443460980E-4
3.959381838E1,8.552113432E-4,-6.963863503E-3,1.675516134E-3
3.961381682E1,2.617993741E-4,-7.941247895E-3,3.211405827E-3
