"Time (s)","Acceleration x (m/s^2)","Acceleration y (m/s^2)","Acceleration z (m/s^2)"
1.925593900E-2,7.765908718E0,5.597930431E0,5.249813557E0
3.925593900E-2,7.276198864E0,5.664508820E0,5.781307220E0
5.925593900E-2,7.162340164E0,5.158652306E0,6.913879395E0
7.925593900E-2,7.156470776E0,4.522081852E0,7.857579231E0
9.925593900E-2,6.845750332E0,3.993604898E0,7.546437263E0
1.192559390E-1,6.310129166E0,3.508328915E0,6.766358376E0
1.392559390E-1,5.893566608E0,4.106553555E0,5.721586227E0
1.592559390E-1,5.556597233E0,4.723146915E0,5.728127480E0
1.792559390E-1,5.179098606E0,4.588755608E0,6.457075596E0
1.992559390E-1,5.033387661E0,4.349258900E0,7.402976513E0
2.192559390E-1,4.578977585E0,4.248022556E0,7.192909241E0
2.392559390E-1,4.809117794E0,4.158220768E0,5.946411610E0
2.592559390E-1,5.487194061E0,4.250943184E0,5.123409271E0
2.792559390E-1,5.515100956E0,4.310482025E0,5.107167244E0
2.992559390E-1,4.341731548E0,5.112865448E0,5.763935089E0
3.192559390E-1,3.185973644E0,5.598304272E0,6.943902969E0
3.392559390E-1,3.112883568E0,3.906877279E0,9.589284897E0
3.592559390E-1,4.600506306E0,2.693122387E0,9.306032181E0
3.792559390E-1,5.927411079E0,3.148001671E0,7.950387001E0
3.992559390E-1,4.977765560E0,4.136146069E0,6.515733242E0
4.192559390E-1,4.351126194E0,4.915889740E0,5.183494568E0
4.392559390E-1,4.934009075E0,4.665389061E0,4.498589993E0
4.592559390E-1,4.681123734E0,4.450428009E0,4.454804897E0
4.792559390E-1,4.242525101E0,4.005968571E0,5.653581619E0
4.992559390E-1,3.750612497E0,3.455196857E0,7.516366005E0
5.192559390E-1,2.661844492E0,3.272720337E0,9.132298470E0
5.392559390E-1,2.895317554E0,2.912843227E0,1.327422142E1
5.592559390E-1,3.023953199E0,2.753963947E0,1.132140446E1
5.792559390E-1,4.220833778E0,2.940903187E0,7.615083694E0
5.992559390E-1,3.490161657E0,3.108152628E0,7.707959652E0
6.192559390E-1,2.995768785E0,3.368909836E0,9.656782150E0
6.392559390E-1,2.363622904E0,3.642969370E0,8.520072937E0
6.592559390E-1,3.491023779E0,1.746483922E0,8.463090897E0
6.792559390E-1,1.777225375E0,4.557688236E0,1.107347965E1
6.992559390E-1,1.900766253E0,3.380526543E0,9.262103081E0
7.192559390E-1,1.551519275E0,2.791878462E0,9.396159172E0
7.392559390E-1,2.028310061E0,1.977332830E0,8.553783417E0
7.592559390E-1,1.552227974E0,1.590161681E0,9.456474304E0
7.792559390E-1,1.557131290E0,1.890519023E0,9.561809540E0
7.992559390E-1,1.365432382E0,2.586053848E0,9.685618401E0
8.192559390E-1,1.310126305E0,2.902414083E0,9.783147812E0
8.392559390E-1,1.273705721E0,2.903228045E0,9.480875969E0
8.592559390E-1,2.028817654E0,2.644500971E0,8.111794472E0
8.792559390E-1,2.454497099E0,2.616527081E0,6.256939411E0
8.992559390E-1,2.639999866E0,2.639798880E0,6.493936539E0
9.192559390E-1,2.198461294E0,2.887004852E0,7.974779129E0
9.392559390E-1,1.649767756E0,2.943910360E0,9.241217613E0
9.592559390E-1,1.892300367E0,2.881708860E0,9.317955017E0
9.792559390E-1,2.068800926E0,3.422032356E0,7.393974304E0
9.992559390E-1,1.854232550E0,3.897319555E0,5.913582325E0
1.019255939E0,9.438613057E-1,4.591647625E0,6.258136749E0
1.039255939E0,8.575838804E-1,4.276226044E0,8.112569809E0
1.059255939E0,1.374185562E0,3.776144266E0,7.561415195E0
1.079255939E0,1.551864028E0,4.002118587E0,5.078245163E0
1.099255939E0,1.043000460E0,4.655036449E0,4.587625504E0
1.119255939E0,3.088807464E-1,4.746322632E0,4.794197083E0
1.139255939E0,-1.201218814E-1,4.006524086E0,7.539953709E0
1.159255939E0,7.849533558E-1,4.006207943E0,8.249289513E0
1.179255939E0,1.070706129E0,4.217165947E0,7.983561039E0
1.199255939E0,1.374271661E-1,4.679869175E0,5.795538425E0
1.219255939E0,-5.533286929E-1,4.850297928E0,9.726041794E0
1.239255939E0,-8.443199992E-1,4.368661404E0,1.022315502E1
1.259255939E0,3.572148737E-3,3.008208990E0,1.054876614E1
1.279255939E0,-5.996325612E-1,4.250799656E0,9.831972122E0
1.299255939E0,-1.405980468E0,5.175736904E0,9.739027977E0
1.319255939E0,-1.195894122E0,5.296826363E0,9.554320335E0
1.339255939E0,-8.666722775E-1,4.705899239E0,9.678847313E0
1.359255939E0,-6.799532771E-1,3.502247572E0,1.010921001E1
1.379255939E0,4.804587960E-1,3.706702948E0,8.504137993E0
1.399255939E0,-6.290333867E-1,3.112988710E0,1.148494720E1
1.419255939E0,-7.878742814E-1,4.769105911E0,1.121955395E1
1.439255939E0,-4.400063753E-1,5.161286831E0,9.416777611E0
1.459255939E0,-2.043403238E-1,4.694713116E0,8.414977074E0
1.479255939E0,1.938345656E-2,3.724994659E0,8.084088326E0
1.499255939E0,-3.352839947E-1,3.211447954E0,8.491045952E0
1.519255939E0,-7.672745585E-1,3.205644369E0,9.318482399E0
1.539255939E0,-1.026940107E0,3.500533342E0,9.682065010E0
1.559255939E0,-9.918698668E-1,3.495208740E0,9.098627090E0
1.579255939E0,-8.383249044E-1,3.216399193E0,7.541658401E0
1.599255939E0,-7.101776600E-1,3.718721867E0,5.224750996E0
1.619255939E0,-2.035291672E0,3.609460115E0,5.751724720E0
1.639255939E0,-1.544298291E0,2.510531187E0,7.281293869E0
1.659255939E0,-8.896278739E-1,1.894177437E0,5.575137615E0
1.679255939E0,6.644388288E-2,9.626605511E-1,6.574822426E0
1.699255939E0,3.732177317E-1,1.042732239E0,7.556971550E0
1.719255939E0,1.237131879E-1,1.642546773E0,8.878600121E0
1.739255939E0,-2.781487703E-1,1.743361831E0,1.062243176E1
1.759255939E0,-1.440466642E0,2.487958431E0,9.400737762E0
1.779255939E0,-1.784206867E0,2.367520571E0,8.498218536E0
1.799255939E0,-1.905075788E0,2.024795532E0,8.842572212E0
1.819255939E0,-2.226578712E0,2.778202772E0,9.271556854E0
1.839255939E0,-2.709814787E0,1.037512898E0,1.218159199E1
1.859255939E0,1.538801193E-1,-7.972403765E-1,1.366901493E1
1.879255939E0,3.420069218E0,-1.200538874E0,1.068133736E1
1.899255939E0,2.890778065E0,-2.143337250E0,1.177836132E1
1.919255939E0,-2.161964029E-1,-6.968084574E-1,1.381420898E1
1.939255939E0,-2.293913364E0,9.134836793E-1,1.318806648E1
1.959255939E0,-5.157320976E0,1.715493321E0,1.255971432E1
1.979255939E0,-3.765696049E0,1.976920962E0,9.890772820E0
1.999255939E0,-1.145702124E0,1.232467890E0,8.112982750E0
2.019255939E0,-1.482307673E0,1.937493324E0,8.312026024E0
2.039255939E0,-1.305146337E0,2.055345535E0,8.592033386E0
2.059255939E0,-2.703005791E0,1.688879371E0,9.280691147E0
2.079255939E0,-1.798572183E0,1.275161386E0,7.260445118E0
2.099255939E0,-5.554355979E-1,1.709843040E0,5.793824196E0
2.119255939E0,2.687251866E-1,1.765129924E0,5.095972061E0
2.139255939E0,-1.096055865E0,1.985712528E0,5.062989235E0
2.159255939E0,3.312808871E-1,1.411630869E0,4.386397839E0
2.179255939E0,3.926078796E0,1.903897882E0,1.036482525E1
2.199255939E0,2.314216137E0,1.918598294E0,9.485022545E0
2.219255939E0,-9.377800226E-1,4.577991009E0,6.477684975E0
2.239255939E0,-1.790173292E0,6.909589291E0,6.249229908E0
2.259255939E0,-2.553885221E0,5.917508602E0,6.901429653E0
2.279255939E0,-1.436156988E0,5.295763016E0,6.635175228E0
2.299255939E0,-1.076509595E0,5.144238949E0,7.267004967E0
2.319255939E0,2.679973602E0,1.538638473E0,1.537874317E1
2.339255939E0,-2.583927631E0,-1.548109889E0,1.238093472E1
2.359255939E0,5.734591484E-1,-7.469813228E-1,1.227888393E1
2.379255939E0,2.191336155E0,1.480287015E-1,1.200386620E1
2.399255939E0,1.378246069E0,-3.980025053E-1,1.117425728E1
2.419255939E0,1.187619790E-1,-1.158448815E0,1.077001858E1
2.439255939E0,-2.687922120E-1,-9.362477660E-1,9.642963409E0
2.459255939E0,1.483274937E0,-6.772429943E-1,1.138863277E1
2.479255939E0,2.629886866E-1,-1.080273390E0,9.417429924E0
2.499255939E0,5.258528590E-1,8.544713855E-1,8.275156021E0
2.519255939E0,2.568192959E0,-1.113820910E0,9.772029877E0
2.539255939E0,2.700151920E0,-1.856914043E0,9.329015732E0
2.559255939E0,1.760207415E0,7.629650235E-1,8.034902573E0
2.579255939E0,1.361170650E0,2.180514336E0,1.002455044E1
2.599255939E0,1.340178251E0,2.111906052E0,7.164083481E0
2.619255939E0,2.812966585E0,1.097904205E0,6.629572868E0
2.639255939E0,2.926604986E0,3.054905534E-1,8.259604454E0
2.659255939E0,1.084228516E0,-5.479657054E-1,7.919281483E0
2.679255939E0,-1.309312224E0,3.690518141E-1,9.337654114E0
2.699255939E0,-2.453979969E0,3.984334469E-1,3.758408070E0
2.719255939E0,-4.684973657E-1,-4.081922174E-1,5.917029858E0
2.739255939E0,2.908763289E-1,-1.121731281E0,2.084095192E1
2.759255939E0,-3.100797415E0,1.785921216E0,8.649273872E0
2.779255939E0,-1.129823685E0,3.310127258E-1,8.378729820E0
2.799255939E0,-1.178751588E0,1.473975897E0,9.056623459E0
2.819255939E0,-5.290132165E-1,1.996821642E0,7.713725090E0
2.839255939E0,-2.560799837E0,2.351556063E0,9.068154335E0
2.859255939E0,-2.736380816E0,9.597971439E-1,7.096652985E0
2.879255939E0,-2.490170717E0,1.323782802E0,7.593267918E0
2.899255939E0,-1.678268313E0,5.576766133E-1,6.953843594E0
2.919255939E0,-1.286433220E0,3.151727095E-2,7.337969303E0
2.939255939E0,-1.477212787E0,-5.840798616E-1,7.633279800E0
2.959255939E0,-2.598867416E0,-6.825198531E-1,7.568004131E0
2.979255939E0,-5.732733727E0,3.268564120E-2,1.061917496E1
2.999255939E0,-7.379772186E0,1.386051178E-1,1.847628593E1
3.019255939E0,-9.368616104E0,-2.148183107E0,1.498538399E1
3.039255939E0,-8.630964279E0,-2.179374695E0,5.443897247E0
3.059255939E0,-7.068717480E0,5.391071439E-1,4.617218018E0
3.079255939E0,-6.886183262E0,8.054094389E-3,8.915002823E0
3.099255939E0,-6.806504250E0,-1.393185854E0,8.242997169E0
3.119255939E0,-8.492673874E0,-9.034376144E-1,6.474974632E0
3.139255939E0,-9.929040909E0,1.518316507E0,5.425634384E0
3.159255939E0,-9.452432632E0,2.244142532E0,5.710544109E0
3.179255939E0,-7.949611187E0,2.258115113E-1,3.945107937E0
3.199255939E0,-6.931845665E0,-5.446425676E-1,1.271024227E0
3.219255939E0,-6.479944706E0,-7.054945827E-1,4.510101080E-1
3.239255939E0,-7.876472950E0,-8.996451646E-2,5.211697817E-1
3.259255939E0,-1.058496666E1,3.806205988E-1,2.865830660E0
3.279255939E0,-9.671204567E0,-4.309658706E-1,3.037351131E0
3.299255939E0,-6.529304028E0,-8.029960394E-1,1.895748019E0
3.319255939E0,-4.564785004E0,-5.251728892E-1,2.221819162E0
3.339255939E0,-4.551635742E0,-1.095826030E0,3.932849646E0
3.359255939E0,-8.936789513E0,-1.483830363E-1,3.079996824E0
3.379255939E0,-9.958940506E0,1.680451751E0,2.707190752E0
3.399255939E0,-6.285411358E0,5.122633651E-2,3.381704330E0
3.419255939E0,-4.358529091E0,-1.958792090E0,2.886190891E0
3.439255939E0,-2.863072395E0,-9.636086822E-1,2.113764048E0
3.459255939E0,-6.953719139E0,2.115573883E0,1.623096347E0
3.479255939E0,-6.684352398E0,1.955947757E0,2.364848614E0
3.499255939E0,-7.954466820E0,-2.856761403E-2,2.215680361E0
3.519255939E0,-1.215828323E1,-1.083232522E0,1.918512106E0
3.539255939E0,-1.437372303E1,-1.247177958E0,1.456574798E0
3.559255939E0,-1.440306759E1,-2.650974989E0,2.895202637E0
3.579255939E0,-1.326108074E1,-2.714028597E0,4.912307739E0
3.599255939E0,-1.253170204E1,-1.932906032E0,5.917594910E0
3.619255939E0,-1.210606098E1,-1.342045784E0,5.230794430E0
3.639255939E0,-1.175117397E1,-4.848066568E-1,3.643064976E0
3.659255939E0,-9.931015015E0,-2.337315381E-1,4.226321220E0
3.679255939E0,-1.007076836E1,2.875914983E-2,2.804826260E0
3.699255939E0,-1.134588242E1,6.739390492E-1,3.598331690E0
3.719255939E0,-1.149356747E1,1.603731960E-1,4.780109882E0
3.739255939E0,-1.033315468E1,-1.705341935E-1,3.697576284E0
3.759255939E0,-9.745759964E0,3.637175262E-1,1.147933483E0
3.779255939E0,-9.440690994E0,1.365643024E0,-1.277354509E-1
3.799255939E0,-1.011962891E1,4.100357533E0,4.015554786E-1
3.819255939E0,-9.028228760E0,4.182210445E0,2.745919466E0
3.839255939E0,-1.130968189E1,3.163324594E0,4.549586296E0
3.859255939E0,-8.727487564E0,2.780357599E0,2.825023890E0
3.879255939E0,-8.403484344E0,2.026030779E0,2.064730644E0
3.899255939E0,-8.455937386E0,2.470231771E0,2.731879652E-1
3.919255939E0,-1.076028061E1,4.298262119E0,2.104828835E0
3.939255939E0,-1.013854313E1,5.558215618E0,3.098317146E0
3.959255939E0,-1.000868225E1,3.808743715E0,2.705304146E0
3.979255939E0,-7.668991566E0,2.329414606E0,2.878251791E0
3.999255939E0,-6.513061523E0,2.067201614E0,1.194802403E0
4.019255939E0,-1.068240166E1,4.345552444E0,1.350760698E0
4.039255939E0,-1.212593365E1,5.247927189E0,1.662581444E0
4.059255939E0,-1.003703022E1,4.885272503E0,4.226378918E0
4.079255939E0,-6.838127136E0,3.644693136E0,5.340630531E0
4.099255939E0,-5.735501289E0,2.169625521E0,4.687023163E0
4.119255939E0,-6.990695000E0,2.655169487E0,5.019280910E0
4.139255939E0,-9.852637291E0,4.640633106E0,4.995702744E0
4.159255939E0,-1.178250790E1,6.038147926E0,4.797625542E0
4.179255939E0,-1.083967209E1,4.077909470E0,4.926117897E0
4.199255939E0,-9.877231598E0,3.113180399E0,5.062510490E0
4.219255939E0,-9.670842171E0,3.414313555E0,3.638401031E0
4.239255939E0,-9.894334793E0,3.691150188E0,2.008754253E0
4.259255939E0,-1.056402206E1,4.433323860E0,1.548100352E0
4.279255939E0,-1.057019901E1,5.374302864E0,-1.172392666E-1
4.299255939E0,-9.680868149E0,4.105683327E0,-2.863369286E-1
4.319255939E0,-9.564068794E0,3.797491074E0,-1.436904073E-1
4.339255939E0,-9.089078903E0,3.359754324E0,-9.020489454E-1
4.359255939E0,-1.081435013E1,4.625597477E0,-4.685069323E-1
4.379255939E0,-1.155643845E1,5.111649036E0,-2.248710871E0
4.399255939E0,-9.729891777E0,4.053450584E0,-1.740230203E0
4.419255939E0,-7.176255226E0,3.981854200E0,-2.505675554E0
4.439255939E0,-8.881041527E0,3.039199591E0,-5.438381195E0
4.459255939E0,-8.366211891E0,2.162222624E0,-6.084652901E0
4.479255939E0,-1.023313332E1,3.852950335E0,-2.308862686E0
4.499255939E0,-1.034654331E1,2.739742279E0,-7.174943089E-1
4.519255939E0,-9.111660957E0,1.478860021E0,1.199925900E0
4.539255939E0,-7.318183422E0,5.897876024E-1,1.853973985E0
4.559255939E0,-5.902712345E0,4.682770967E-1,8.832784295E-1
4.579255939E0,-6.942725182E0,2.686217546E0,7.771099806E-1
4.599255939E0,-8.548640251E0,3.432135820E0,4.092542648E0
4.619255939E0,-8.482953072E0,2.806301117E0,3.557094097E0
4.639255939E0,-8.310063362E0,1.260049105E0,2.322873592E0
4.659255939E0,-9.140831947E0,1.667044282E0,9.050465226E-1
4.679255939E0,-1.095487213E1,2.181328297E0,7.497777343E-1
4.699255939E0,-1.073048592E1,1.560540557E0,1.842510462E0
4.719255939E0,-9.025011063E0,1.437497854E0,2.649088383E0
4.739255939E0,-8.366910934E0,1.526600361E0,3.548053503E0
4.759255939E0,-8.612500191E0,1.604622602E0,6.976129055E0
4.779255939E0,-9.129024506E0,1.194323540E0,5.543352604E0
4.799255939E0,-9.010261536E0,1.028807640E0,3.634656668E0
4.819255939E0,-7.534523487E0,1.074335694E0,3.630528927E0
4.839255939E0,-7.143905163E0,2.233809233E0,3.868388176E0
4.859255939E0,-5.590116024E0,3.730156422E0,7.363127708E0
4.879255939E0,-4.483582973E0,3.034171581E0,7.803679943E0
4.899255939E0,-5.669316292E0,2.226856470E0,7.042869568E0
4.919255939E0,-7.213356018E0,2.531533003E0,7.948414326E0
4.939255939E0,-8.197575569E0,3.051237583E0,8.008690834E0
4.959255939E0,-7.538890839E0,1.784915566E0,8.692695618E0
4.979255939E0,-7.603065014E0,1.553099394E0,7.613532543E0
4.999255939E0,-5.975927353E0,2.190301895E0,6.625167847E0
5.019255939E0,-2.225228548E0,2.667111874E0,5.752845287E0
5.039255939E0,-6.152906418E-1,2.609488249E0,5.230391979E0
5.059255939E0,-2.395044327E0,2.313632011E0,6.395755291E0
5.079255939E0,-4.765447617E0,2.179278851E0,7.210453987E0
5.099255939E0,-5.472723484E0,2.056810617E0,7.665314198E0
5.119255939E0,-4.761712551E0,1.193586111E0,8.435912132E0
5.139255939E0,-5.730071545E0,4.951017499E-1,6.601780891E0
5.159255939E0,-6.276313305E0,1.751090288E0,8.491601944E0
5.179255939E0,-6.248492718E0,1.420498967E0,9.861487389E0
5.199255939E0,-6.480854511E0,1.202856421E0,9.890676498E0
5.219255939E0,-5.855039120E0,-1.662533581E-1,8.305870056E0
5.239255939E0,-5.476353168E0,-2.267213166E-1,5.956754208E0
5.259255939E0,-5.071503162E0,7.036175728E-1,3.766854763E0
5.279255939E0,-4.177240372E0,2.248921394E0,6.021426678E0
5.299255939E0,-1.130542010E-1,-5.257475376E-1,1.003426170E1
5.319255939E0,-1.203028798E0,-2.670770168E0,4.654270649E0
5.339255939E0,-6.248157501E0,1.158592463E0,8.847541809E0
5.359255939E0,-3.550476551E0,8.674479723E-1,9.075508118E0
5.379255939E0,-2.193557978E0,1.114462495E0,8.912367821E0
5.399255939E0,-3.844991922E0,1.336405039E0,1.030940342E1
5.419255939E0,-3.219195604E0,-2.015055865E-1,1.042935371E1
5.439255939E0,-2.579637289E0,8.601599932E-1,7.661598206E0
5.459255939E0,-2.516784705E-2,1.019518137E0,7.838366985E0
5.479255939E0,-2.143270016E0,1.105345368E0,9.062426567E0
5.499255939E0,-3.355262756E0,2.297447205E0,7.971752644E0
5.519255939E0,-3.693439007E0,3.829334021E0,8.433824539E0
5.539255939E0,-3.324454308E0,2.954808712E0,8.557930946E0
5.559255939E0,-3.379961491E0,2.943172932E0,9.662978172E0
5.579255939E0,-3.535354614E0,3.114626408E0,1.080771351E1
5.599255939E0,-5.536926270E0,4.203940392E0,1.202006054E1
5.619255939E0,-5.447038651E0,5.302342415E0,1.220917320E1
5.639255939E0,-1.417472720E0,4.852807045E0,7.732035637E0
5.659255939E0,2.035990715E0,3.278303623E0,5.844945431E0
5.679255939E0,4.071483612E-1,3.087476254E0,7.044938087E0
5.699255939E0,-2.919010632E-2,2.981815338E0,7.698229790E0
5.719255939E0,-1.670884609E0,2.753216982E0,9.635321617E0
5.739255939E0,-6.214772463E-1,1.954214334E0,1.035117817E1
5.759255939E0,1.020810962E0,5.905441642E-1,8.391369820E0
5.779255939E0,1.805563211E0,-3.125869483E-2,8.267848969E0
5.799255939E0,6.444903612E-1,3.559124470E-1,9.103061676E0
5.819255939E0,-2.892003953E-1,1.062728643E0,8.864973068E0
5.839255939E0,7.464641929E-1,1.311265945E0,7.975257874E0
5.859255939E0,2.160163641E0,1.300779343E0,7.517764091E0
5.879255939E0,2.016645670E0,1.231270790E0,7.057723045E0
5.899255939E0,1.667906165E0,1.639913201E0,8.081388474E0
5.919255939E0,1.302416921E0,2.414092541E0,8.911908150E0
5.939255939E0,1.149341226E0,2.851810217E0,7.993875027E0
5.959255939E0,1.095500469E0,2.739359379E0,6.205684185E0
5.979255939E0,-3.266648650E-1,2.523641825E0,7.320980072E0
5.999255939E0,-2.137993336E0,2.507083416E0,1.281601715E1
6.019255939E0,-2.023272753E0,2.595582724E0,9.770028114E0
6.039255939E0,-2.205356598E0,1.621381998E0,6.853430748E0
6.059255939E0,-1.032370210E0,1.812343597E0,8.117817879E0
6.079255939E0,1.841045320E-1,2.060536146E0,8.697387695E0
6.099255939E0,8.924434185E-1,2.267280102E0,9.416366577E0
6.119255939E0,2.685815334E0,1.764210582E0,8.972855568E0
6.139255939E0,5.425261021E0,3.483659029E-1,7.112320423E0
6.159255939E0,4.773731709E0,1.122114435E-1,8.081772804E0
6.179255939E0,3.693247557E0,3.851504326E-1,9.202688217E0
6.199255939E0,3.481130838E0,1.858475059E-1,9.856728554E0
6.219255939E0,3.196345329E0,-2.373515666E-1,9.728934288E0
6.239255939E0,2.397208691E0,-1.319588125E-1,9.638433456E0
6.259255939E0,2.491884947E0,-2.627013624E-1,9.184271812E0
6.279255939E0,2.730472088E0,-3.273448050E-1,9.439609528E0
6.299255939E0,2.622024298E0,-1.924650818E-1,9.613429070E0
6.319255939E0,2.831267834E0,1.224682033E-1,9.209564209E0
6.339255939E0,3.755276442E0,-9.030928835E-3,8.957110405E0
6.359255939E0,4.711760044E0,-3.269425929E-1,8.694399834E0
6.379255939E0,6.630137920E0,-1.805342913E0,7.674623013E0
6.399255939E0,6.401233196E0,-1.378514290E0,8.401963234E0
6.419255939E0,5.482491970E0,-1.116195917E0,8.567497253E0
6.439255939E0,4.336904526E0,-1.222632527E0,8.520983696E0
6.459255939E0,2.655791998E0,-8.167962432E-1,7.859072208E0
6.479255939E0,1.536464572E0,-1.053352952E-1,7.947657585E0
6.499255939E0,1.463766932E0,2.186193317E-1,7.935370445E0
6.519255939E0,1.906502724E0,5.795404315E-1,8.244529724E0
6.539255939E0,2.274740458E0,4.943068624E-1,7.926856518E0
6.559255939E0,2.654489517E0,1.166455001E-1,7.905031204E0
6.579255939E0,3.737166643E0,-1.335466504E0,7.253856182E0
6.599255939E0,4.128082275E0,-2.342745304E0,7.348340988E0
6.619255939E0,3.302619219E0,-3.185887575E0,7.632801056E0
6.639255939E0,1.872610450E0,-2.444154263E0,9.209383011E0
6.659255939E0,1.613270521E0,-2.293731213E0,9.077940941E0
6.679255939E0,2.971089363E0,-2.609507322E0,8.130497932E0
6.699255939E0,3.354994774E0,-2.880205393E0,8.855644226E0
6.719255939E0,3.255300045E0,-2.921213150E0,1.021272564E1
6.739255939E0,3.642203093E0,-2.461526632E0,1.072660732E1
6.759255939E0,4.699425220E0,-2.334193230E0,1.065224457E1
6.779255939E0,4.868580341E0,-1.549651742E0,1.100115490E1
6.799255939E0,4.761511326E0,-4.129327238E-1,1.094671154E1
6.819255939E0,3.755784035E0,-2.339805365E-1,1.075178432E1
6.839255939E0,2.648877621E0,-1.998392195E-1,1.013887882E1
6.859255939E0,1.489729643E0,-1.245942488E-1,9.269333839E0
6.879255939E0,7.734516263E-1,-6.030802131E-1,8.480482101E0
6.899255939E0,7.158567309E-1,-1.296488881E0,8.158701897E0
6.919255939E0,1.599767208E0,-1.699164867E0,8.279694557E0
6.939255939E0,3.232354164E0,-1.204762220E0,9.092077255E0
6.959255939E0,3.367990494E0,-6.122643948E-1,9.096185684E0
6.979255939E0,3.510981798E0,-7.251174450E-1,8.182193756E0
6.999255939E0,3.966176987E0,-9.332406521E-1,7.354412556E0
7.019255939E0,3.588314533E0,-7.805001736E-1,7.640950680E0
7.039255939E0,3.110805273E0,-9.267762899E-1,7.682446957E0
7.059255939E0,2.038403988E0,-1.336577415E0,6.669259071E0
7.079255939E0,5.842618346E-1,-1.304428101E0,7.524507523E0
7.099255939E0,9.077950716E-1,-2.224548578E0,7.332941532E0
7.119255939E0,1.622282267E0,-1.536809325E0,8.422686577E0
7.139255939E0,2.424062014E0,-9.060233235E-1,7.732591152E0
7.159255939E0,4.263048172E0,-7.957464457E-1,7.177645206E0
7.179255939E0,4.539961815E0,-8.552375436E-1,8.675533295E0
7.199255939E0,3.377624750E0,-1.166560411E0,9.627554893E0
7.219255939E0,1.168944955E0,-3.146076798E-1,1.058220863E1
7.239255939E0,1.918923855E0,-2.217988297E-2,1.043301201E1
7.259255939E0,2.286271095E0,1.428763717E-1,1.022206306E1
7.279255939E0,2.909989357E0,1.549431533E-1,1.021103954E1
7.299255939E0,3.161801815E0,-2.745095789E-1,1.005342579E1
7.319255939E0,1.899253130E0,1.796005487E0,1.014273834E1
7.339255939E0,8.049401641E-1,1.351737499E0,1.023806667E1
7.359255939E0,8.987162709E-1,1.159617186E0,9.903155327E0
7.379255939E0,1.595438480E0,1.954530478E-1,1.099480629E1
7.399255939E0,2.066033125E0,1.012076855E0,1.362679958E1
7.419255939E0,7.332194448E-1,1.444048285E0,1.136989117E1
7.439255939E0,4.252485037E-1,1.336290121E0,1.047398186E1
7.459255939E0,7.695443034E-1,6.846267581E-1,9.254959106E0
7.479255939E0,-1.273427904E-1,1.544068456E-1,9.174591064E0
7.499255939E0,-1.568776667E-1,6.035399437E-1,8.297986984E0
7.519255939E0,6.794744134E-1,1.207300067E0,9.235785484E0
7.539255939E0,2.201554537E0,9.631968737E-1,8.767002106E0
7.559255939E0,2.143634081E0,1.005286932E0,8.289999962E0
7.579255939E0,-7.379599810E-1,2.180131197E0,6.857692719E0
7.599255939E0,-1.470528245E0,2.638793230E0,7.656560898E0
7.619255939E0,4.121857509E-2,2.938939810E0,8.839547157E0
7.639255939E0,9.089442492E-1,1.144734859E0,1.045286465E1
7.659255939E0,1.254695773E0,8.398858830E-3,7.446043491E0
7.679255939E0,3.216944933E-1,1.142790675E0,8.939738274E0
7.699255939E0,1.023569107E0,1.321359873E0,8.302171707E0
7.719255939E0,1.928893328E0,7.944726944E-1,8.937008858E0
7.739255939E0,1.711882830E0,8.388516307E-1,1.032724476E1
7.759255939E0,7.279426455E-1,1.007958889E0,9.415390968E0
7.779255939E0,-2.393243909E-1,1.266178250E0,9.901278496E0
7.799255939E0,8.832113743E-1,1.924229383E0,9.833618164E0
7.819255939E0,3.002462864E0,2.312061310E0,1.192663860E1
7.839255939E0,3.083846569E0,2.208392382E0,1.185856628E1
7.859255939E0,1.195003510E0,2.723634243E0,1.021398926E1
7.879255939E0,1.080167964E-1,3.074691057E0,1.099203968E1
7.899255939E0,-1.902432591E-1,2.059654951E0,1.020863628E1
7.919255939E0,-8.573923111E-1,1.309676170E0,9.767796516E0
7.939255939E0,-1.818377018E0,1.401508212E0,1.011530018E1
7.959255939E0,-1.714391947E0,7.728482485E-1,9.065395355E0
7.979255939E0,-7.476325631E-1,4.337144196E-1,9.184865952E0
7.999255939E0,3.680558205E-1,3.517082036E-1,8.787600517E0
8.019255939E0,9.028246999E-1,5.222328305E-1,8.782056808E0
8.039255939E0,1.305893362E-1,1.265843153E0,9.115424156E0
8.059255939E0,-8.146702051E-1,1.734484196E0,7.409326077E0
8.079255939E0,-1.793371916E0,2.059750795E0,7.547912121E0
8.099255939E0,-1.305912495E0,1.654355049E0,7.355082989E0
8.119255939E0,-7.429878116E-1,5.880925059E-1,8.144786835E0
8.139255939E0,-1.515721083E-1,1.254561637E-2,8.685493469E0
8.159255939E0,3.350254297E-1,-1.087542102E-1,9.376230240E0
8.179255939E0,7.923562527E-1,-2.653445899E-1,8.983695984E0
8.199255939E0,3.701148331E-1,5.591897294E-2,8.613762856E0
8.219255939E0,4.850652441E-2,7.137498260E-1,8.006556511E0
8.239255939E0,-4.790222943E-1,2.791830599E-1,7.894477367E0
8.259255939E0,-1.046342731E0,-8.380184174E-1,8.265694618E0
8.279255939E0,-2.126788378E0,-6.467121840E-1,8.167771339E0
8.299255939E0,-2.757354021E0,1.056781411E0,8.886069298E0
8.319255939E0,-1.728086829E0,1.569657683E0,9.563973427E0
8.339255939E0,-9.545777440E-1,4.279395938E-1,9.856718063E0
8.359255939E0,-1.215775609E0,2.963064015E-1,9.874512672E0
8.379255939E0,-2.442037821E0,1.852863073E0,1.182158184E1
8.399255939E0,-2.737597227E0,3.398636103E0,1.196599007E1
8.419255939E0,-3.452247143E0,4.362196922E0,1.106843185E1
8.439255939E0,-3.800852537E0,3.189229727E0,9.619566917E0
8.459255939E0,-3.468508482E0,2.742433548E0,9.820374489E0
8.479255939E0,-2.891304970E0,1.880042076E0,9.992057800E0
8.499255939E0,-1.392132521E0,2.976950407E-1,1.009385777E1
8.519255939E0,-1.353873134E0,-7.409766912E-1,1.008061504E1
8.539255939E0,-2.393780231E0,-3.960775733E-1,8.112379074E0
8.559255939E0,-3.328993559E0,-1.761691809E0,6.621883869E0
8.579255939E0,-3.616767168E0,-1.116186380E0,5.448858261E0
8.599255939E0,-3.285189390E0,-1.697871983E-1,6.525856018E0
8.619255939E0,-1.250386119E0,5.425739884E-1,9.133314133E0
8.639255939E0,7.558973134E-2,1.847078651E-1,9.156547546E0
8.659255939E0,-1.518785655E-1,1.745995402E0,9.660422325E0
8.679255939E0,-4.241184592E-1,1.699040413E0,9.153271675E0
8.699255939E0,-8.743241429E-1,1.310748816E0,9.627832413E0
8.719255939E0,-9.858843088E-1,8.974712491E-1,1.006982994E1
8.739255939E0,-1.761394978E0,1.769880056E0,8.630426407E0
8.759255939E0,-2.295014620E0,2.143203020E0,8.510124207E0
8.779255939E0,-2.201966286E0,9.739325047E-1,8.640548706E0
8.799255939E0,-1.299476862E0,5.299708843E-1,9.466424942E0
8.819255939E0,-7.807587385E-1,9.031119943E-1,9.111739159E0
8.839255939E0,-1.730892777E0,8.241799474E-1,9.717384338E0
8.859255939E0,-2.181165457E0,-3.444489837E-1,1.093151283E1
8.879255939E0,-1.705724955E0,-1.105412483E0,1.116457462E1
8.899255939E0,-2.054138899E0,-7.333918214E-1,1.107292366E1
8.919255939E0,-2.812573910E0,-7.180114985E-1,1.018086433E1
8.939255939E0,-1.779973984E0,-4.990282357E-1,1.026865387E1
8.959255939E0,-1.707305193E0,-6.279032826E-1,9.731739998E0
8.979255939E0,-1.991008520E0,-5.854014158E-1,9.476575851E0
8.999255939E0,-2.636360645E0,-4.451586902E-1,9.124072075E0
9.019255939E0,-3.257771015E0,-3.750468791E-1,9.167791367E0
9.039255939E0,-3.253672123E0,9.979031980E-3,9.283334732E0
9.059255939E0,-2.704585791E0,4.185256064E-1,9.098080635E0
9.079255939E0,-1.760149956E0,4.542087615E-1,8.497069359E0
9.099255939E0,-1.954990149E0,6.013851166E-1,8.056441307E0
9.119255939E0,-1.388129354E0,-1.264521480E-1,7.990120888E0
9.139255939E0,-6.724737883E-1,-1.588361263E0,7.312916279E0
9.159255939E0,-9.564069510E-1,-1.286864161E0,7.298206329E0
9.179255939E0,-2.498435497E0,-1.292859316E0,8.327674866E0
9.199255939E0,-4.530490398E0,-5.872880816E-1,8.181781769E0
9.219255939E0,-2.816509962E0,-5.064789653E-1,9.009832382E0
9.239255939E0,-9.597013593E-1,-1.272556424E0,8.523386002E0
9.259255939E0,-4.460014403E-1,-1.633640409E0,8.071686745E0
9.279255939E0,-7.910155058E-1,-2.643323183E0,7.584141254E0
9.299255939E0,-1.143173814E0,-2.017507553E0,8.366652489E0
9.319255939E0,-1.447687507E0,-3.345944583E-1,9.764770508E0
9.339255939E0,-1.594911814E0,-7.665754557E-1,8.089126587E0
9.359255939E0,-2.160556316E0,-8.622573614E-1,8.786538124E0
9.379255939E0,-2.716920853E0,2.939169884E0,3.041689396E0
9.399255939E0,-1.561354637E0,3.822869539E0,1.383968258E1
9.419255939E0,-2.532050133E0,9.817088246E-1,1.167190552E1
9.439255939E0,-2.203603983E0,1.018876433E-1,1.085583687E1
9.459255939E0,-2.729188681E0,-2.076922059E-1,1.016073322E1
9.479255939E0,-2.079862118E0,2.553368211E-1,1.071642685E1
9.499255939E0,-2.228513241E0,-1.060918570E0,8.522410393E0
9.519255939E0,-3.426715374E0,-1.241259456E0,9.449981689E0
9.539255939E0,-1.141737342E0,-2.627779841E-1,1.167967319E1
9.559255939E0,-1.074230433E0,1.970600247E0,1.095960140E1
9.579255939E0,-1.304983497E0,1.070227265E0,1.107954216E1
9.599255939E0,-1.581571221E0,5.984833837E-1,1.042771626E1
9.619255939E0,-6.270988584E-1,-2.123656869E-1,1.006217766E1
9.639255939E0,-1.572971344E0,-2.771336138E-1,9.640999794E0
9.659255939E0,-2.094265699E0,-1.041219115E0,8.717968941E0
9.679255939E0,-2.247053862E0,-1.638888478E0,7.451617241E0
9.699255939E0,-2.617408276E0,-9.621530175E-1,7.345046520E0
9.719255939E0,-2.631945848E0,-1.780232489E-1,7.766253471E0
9.739255939E0,-2.167891979E0,-7.594215870E-1,7.974521637E0
9.759255939E0,-1.371073008E0,-1.387813330E0,8.130632401E0
9.779255939E0,-1.619543314E0,-1.089093566E0,7.900731087E0
9.799255939E0,-1.841466665E0,-6.664021015E-1,7.536257267E0
9.819255939E0,-1.428102970E0,-1.496663243E-1,7.672276497E0
9.839255939E0,-1.079631686E0,1.177947223E-2,8.331631660E0
9.859255939E0,-1.524474382E0,-1.218457073E-1,8.561128616E0
9.879255939E0,-1.542737365E0,3.798257113E-1,9.191082954E0
9.899255939E0,-1.145970225E0,2.126146853E-1,9.685359955E0
9.919255939E0,-1.650074124E0,-1.437584043E0,9.792093277E0
9.939255939E0,-2.768041849E0,-5.795308352E-1,9.067099571E0
9.959255939E0,-2.956532478E0,-1.937292218E-1,8.582331657E0
9.979255939E0,-3.746800900E0,-1.201458216E0,9.049469948E0
9.999255939E0,-4.333590984E0,-1.556077838E0,1.089993954E1
1.001925594E1,-3.860065937E0,-1.383599520E0,1.095609665E1
1.003925594E1,-4.685778141E0,6.595163345E-1,1.157864666E1
1.005925594E1,-3.528449774E0,1.449564576E0,1.109051800E1
1.007925594E1,-2.681563139E0,7.042687535E-1,9.665689468E0
1.009925594E1,-3.157683849E0,7.692761421E-1,9.048855782E0
1.011925594E1,-3.400340796E0,1.549766660E0,8.863784790E0
1.013925594E1,-3.318411350E0,1.737778544E0,8.819510460E0
1.015925594E1,-2.542201519E0,1.031058073E0,8.993166924E0
1.017925594E1,-2.801867008E0,2.953487039E-1,8.644647598E0
1.019925594E1,-3.707488298E0,5.414726138E-1,8.070077896E0
1.021925594E1,-3.028550148E0,3.307637274E-1,7.935513973E0
1.023925594E1,-2.429348469E0,3.373142779E-1,7.926647186E0
1.025925594E1,-2.976528883E0,1.389019936E-1,8.006583214E0
1.027925594E1,-3.054522514E0,1.000872031E-1,8.054181099E0
1.029925594E1,-2.352006197E0,5.431389809E-1,8.472083092E0
1.031925594E1,-3.096708298E0,6.293877214E-2,8.285901070E0
1.033925594E1,-1.771211147E0,2.768750489E-1,8.808307648E0
1.035925594E1,-9.016371965E-1,-1.965735257E-1,8.458600998E0
1.037925594E1,-9.162130952E-1,-1.217116341E-1,9.035573006E0
1.039925594E1,-1.868865848E0,-7.377971709E-2,9.124169350E0
1.041925594E1,-2.525547504E0,-7.055233419E-2,9.188524246E0
1.043925594E1,-2.168936014E0,-2.829276025E-1,9.536296844E0
1.045925594E1,-2.152176619E0,-1.015141513E-2,9.273231506E0
1.047925594E1,-2.310414076E0,2.989878878E-2,8.846038818E0
1.049925594E1,-2.389077902E0,-1.235216483E-1,8.472736359E0
1.051925594E1,-2.000403404E0,-5.811876655E-1,8.729557037E0
1.053925594E1,-2.009051085E0,2.485085428E-1,9.048119545E0
1.055925594E1,-2.437929392E0,2.536225617E-1,9.018968582E0
1.057925594E1,-2.405023336E0,-3.373047113E-1,1.010807037E1
1.059925594E1,-2.661691427E0,-3.165134490E-1,9.995313644E0
1.061925594E1,-2.102175951E0,-8.033599854E-1,8.900109291E0
1.063925594E1,-2.049302578E0,-1.015543699E0,9.071304321E0
1.065925594E1,-2.169453144E0,-2.118485272E-1,9.267341614E0
1.067925594E1,-2.142637968E0,3.789637983E-1,8.956574440E0
1.069925594E1,-2.276129246E0,-1.653914526E-2,9.632592201E0
1.071925594E1,-2.522320032E0,5.661807954E-2,1.100561810E1
1.073925594E1,-2.733641863E0,5.578393936E-1,1.145707989E1
1.075925594E1,-2.221302032E0,1.202492595E0,1.115855122E1
1.077925594E1,-2.155595541E0,1.486368179E0,1.041676998E1
1.079925594E1,-2.060344458E0,1.658750772E0,9.935179710E0
1.081925594E1,-2.471658707E0,2.041363239E0,9.888359070E0
1.083925594E1,-1.608300090E0,1.966865301E0,1.085520554E1
1.085925594E1,-1.518670797E0,1.037474632E0,9.817654610E0
1.087925594E1,-2.192418337E0,1.369598269E0,9.673227310E0
1.089925594E1,-2.731688261E0,1.686255336E0,9.225644112E0
1.091925594E1,-2.126721382E0,9.963134527E-1,9.340479851E0
1.093925594E1,-1.332382798E0,4.698093832E-1,1.067487431E1
1.095925594E1,-5.377855897E-1,4.115824103E-1,1.040782452E1
1.097925594E1,-1.341519058E-1,1.764813811E-1,9.074071884E0
1.099925594E1,-3.857441843E-1,-3.629801273E-1,8.682065010E0
1.101925594E1,-4.196365178E-1,-6.186042428E-1,9.304432869E0
1.103925594E1,4.878425226E-2,-6.772813201E-1,9.585751534E0
1.105925594E1,7.310646772E-1,-5.182201266E-1,9.507164001E0
1.107925594E1,1.445063472E0,-3.989218771E-1,9.267945290E0
1.109925594E1,1.565328956E0,-6.766205430E-1,8.817308426E0
1.111925594E1,1.375095367E0,-7.315052152E-1,8.417898178E0
1.113925594E1,2.037446499E0,-5.557516813E-1,8.887516975E0
1.115925594E1,1.699049950E0,-2.984516025E-1,8.576193810E0
1.117925594E1,1.799290419E0,-4.523700178E-1,9.023659706E0
1.119925594E1,1.629905462E0,-4.029441178E-1,9.651927948E0
1.121925594E1,1.463173270E0,-1.567723155E-1,1.001008987E1
1.123925594E1,9.993492961E-1,-1.416409668E-2,8.841853142E0
1.125925594E1,7.413309813E-1,-3.842885196E-1,7.554127216E0
1.127925594E1,1.394785285E0,-1.330180049E0,8.489216805E0
1.129925594E1,1.661710024E0,-1.640545249E0,9.450019836E0
1.131925594E1,1.542354226E0,-1.913321376E0,9.509376526E0
1.133925594E1,3.480977714E-1,-2.048488379E0,8.266565323E0
1.135925594E1,-1.597890109E-1,-2.663501501E0,7.596514225E0
1.137925594E1,-7.128208280E-1,-2.635498762E0,8.161813736E0
1.139925594E1,-1.581887364E0,-2.318152189E0,9.247385025E0
1.141925594E1,-1.674246073E0,-1.566028118E0,9.288688660E0
1.143925594E1,-1.548138618E0,-1.766930342E0,8.987900734E0
1.145925594E1,-1.576342344E0,-1.753762245E0,8.694409370E0
1.147925594E1,-1.531561136E0,-1.180216908E0,8.704167366E0
1.149925594E1,-9.536966681E-1,-1.281510830E0,7.582091808E0
1.151925594E1,-1.431732532E-2,-2.179020405E0,7.794668198E0
1.153925594E1,-4.367789924E-1,-1.758033514E0,8.816839218E0
1.155925594E1,-8.600929976E-1,-6.116418839E-1,9.314565659E0
1.157925594E1,-8.557546735E-1,-4.315021634E-1,9.143189430E0
1.159925594E1,-1.117862344E0,-8.245247006E-1,9.281697273E0
1.161925594E1,-2.909337878E-1,-1.196152687E0,9.098779678E0
1.163925594E1,8.272062540E-1,-1.397610426E0,9.371404648E0
1.165925594E1,6.051583886E-1,-9.705135822E-1,9.870498657E0
1.167925594E1,1.018723249E0,-1.536713481E0,1.042091560E1
1.169925594E1,2.059559345E0,-7.784507275E-1,9.973680496E0
1.171925594E1,2.023703575E0,-1.447524667E0,9.449319839E0
1.173925594E1,1.626333237E0,-1.432747722E0,1.005539799E1
1.175925594E1,1.301507115E0,-4.214848280E-1,1.114499092E1
1.177925594E1,2.326493502E0,3.728059232E-1,1.099959469E1
1.179925594E1,2.059540033E0,4.349785298E-2,1.056148434E1
1.181925594E1,1.377240539E0,-1.992550343E-1,1.004440403E1
1.183925594E1,1.360375762E0,3.711012602E-1,1.042845345E1
1.185925594E1,2.718539238E0,-4.236587584E-1,1.032081890E1
1.187925594E1,3.430613279E0,-8.816791177E-1,1.088475037E1
1.189925594E1,3.310069799E0,-7.180497646E-1,1.018206978E1
1.191925594E1,3.170028210E0,-9.200724959E-1,8.822891235E0
1.193925594E1,2.513586044E0,-2.675759792E-2,9.944957733E0
1.195925594E1,3.327901840E0,-2.066770643E-1,9.961497307E0
1.197925594E1,2.712362289E0,-1.515050791E-2,1.022919846E1
1.199925594E1,1.583457947E0,5.680099726E-1,9.675217628E0
1.201925594E1,2.381368637E0,2.126051113E-2,9.504224777E0
1.203925594E1,3.206544638E0,-1.464609742E0,8.764636040E0
1.205925594E1,2.891486883E0,-1.556748152E0,8.914675713E0
1.207925594E1,2.211878300E0,-1.119260550E0,8.852808952E0
1.209925594E1,1.540927291E0,-3.353127241E-1,8.424247742E0
1.211925594E1,1.984410048E0,-7.691133022E-1,8.574268341E0
1.213925594E1,2.136959076E0,-1.261332393E0,8.074598312E0
1.215925594E1,1.828202724E0,-1.476944685E0,7.206853390E0
1.217925594E1,2.367357731E0,-1.842558384E0,6.844179630E0
1.219925594E1,2.241221666E0,-1.625624537E0,7.712049007E0
1.221925594E1,2.117604256E0,-1.854136705E0,7.452134609E0
1.223925594E1,2.002730370E0,-2.796983004E0,6.261929035E0
1.225925594E1,3.039572954E0,-3.217634678E0,7.230767727E0
1.227925594E1,3.305961370E0,-3.415309429E0,6.937486649E0
1.229925594E1,3.185188293E0,-3.906752825E0,7.521058559E0
1.231925594E1,3.045903206E0,-3.787674904E0,7.594139099E0
1.233925594E1,2.907719612E0,-3.476026297E0,8.291045189E0
1.235925594E1,3.025265217E0,-2.896878481E0,9.337357521E0
1.237925594E1,2.621353865E0,-1.995088220E0,9.767807007E0
1.239925594E1,2.476073742E0,-2.214875937E0,1.011016750E1
1.241925594E1,2.569236994E0,-2.074460745E0,1.019026947E1
1.243925594E1,2.258488655E0,-1.885395408E0,1.050303841E1
1.245925594E1,2.004760742E0,-2.004023314E0,1.031804180E1
1.247925594E1,1.561555743E0,-1.032513857E0,1.070892811E1
1.249925594E1,1.315403104E0,-1.434366226E0,1.001199722E1
1.251925594E1,1.497573137E0,-1.557954907E0,9.902819633E0
1.253925594E1,1.448827147E0,-1.889226198E0,9.541955948E0
1.255925594E1,1.007489562E0,-1.773021221E0,9.200056076E0
1.257925594E1,1.190511942E0,-1.474780321E0,8.939010620E0
1.259925594E1,1.445312500E0,-1.747518182E0,8.688758850E0
1.261925594E1,1.387985706E0,-1.990251899E0,8.438143730E0
1.263925594E1,1.800755620E0,-2.216800928E0,8.211537361E0
1.265925594E1,2.137648582E0,-2.367156744E0,7.974596977E0
1.267925594E1,2.497190475E0,-2.445475817E0,7.655660629E0
1.269925594E1,2.573632717E0,-2.604948759E0,7.873580933E0
1.271925594E1,2.337037563E0,-2.474503040E0,7.618560314E0
1.273925594E1,2.549039364E0,-2.413853168E0,7.464584351E0
1.275925594E1,2.515874863E0,-2.588333130E0,7.444204807E0
1.277925594E1,3.137993813E0,-2.666767120E0,7.849772930E0
1.279925594E1,3.443637609E0,-3.113649607E0,7.859321117E0
1.281925594E1,3.328150988E0,-3.038586617E0,7.585855484E0
1.283925594E1,2.630030394E0,-2.480105639E0,7.912406445E0
1.285925594E1,2.457619190E0,-2.013322353E0,8.902139664E0
1.287925594E1,2.695478439E0,-1.912804246E0,9.305056572E0
1.289925594E1,2.833010912E0,-2.073771238E0,9.081063271E0
1.291925594E1,2.502285480E0,-1.713281035E0,9.381525993E0
1.293925594E1,2.169501066E0,-1.348519683E0,8.999487877E0
1.295925594E1,1.133846045E0,-1.190387487E0,9.346982002E0
1.297925594E1,1.816969156E0,-7.717756629E-1,8.881233215E0
1.299925594E1,1.827580333E0,-6.800969243E-1,9.463906288E0
1.301925594E1,1.477959752E0,2.753331885E-2,1.028194714E1
1.303925594E1,6.089029312E-1,-6.138637066E-1,1.079837608E1
1.305925594E1,5.014703274E-1,-1.492353678E-1,9.799468040E0
1.307925594E1,3.507601023E-1,3.278523982E-1,9.651342392E0
1.309925594E1,6.135860085E-1,5.874891877E-1,1.024065304E1
1.311925594E1,1.006752253E0,4.854195714E-1,1.014538097E1
1.313925594E1,1.923884630E0,-1.854069680E-1,9.170443535E0
1.315925594E1,2.452849865E0,-5.876137018E-1,9.260523796E0
1.317925594E1,2.625653744E0,-7.225604653E-1,9.382703781E0
1.319925594E1,2.400752068E0,-1.673451215E-1,9.581336975E0
1.321925594E1,2.426485062E0,-4.244440496E-1,8.889144897E0
1.323925594E1,2.217777729E0,-1.182773948E0,8.556638718E0
1.325925594E1,2.395896673E0,-6.050051451E-1,8.970240593E0
1.327925594E1,3.046094894E0,-3.901016414E-1,9.307018280E0
1.329925594E1,2.536723614E0,-4.339155257E-1,8.957531929E0
1.331925594E1,1.465940952E0,-3.994294405E-1,8.473655701E0
1.333925594E1,1.736619711E0,-1.031431675E0,8.496734619E0
1.335925594E1,1.823538899E0,-8.089815378E-1,8.986023903E0
1.337925594E1,1.468315959E0,-9.956814051E-1,9.065979958E0
1.339925594E1,1.222833633E0,-7.809502482E-1,8.790733337E0
1.341925594E1,1.808953404E0,-1.259924650E0,8.991136551E0
1.343925594E1,1.772551894E0,-1.041889548E0,9.210101128E0
1.345925594E1,1.550159335E0,-1.663826466E0,9.362813950E0
1.347925594E1,9.444454908E-1,-1.400531292E0,9.905405998E0
1.349925594E1,4.913572073E-1,-9.366691113E-1,1.015103245E1
1.351925594E1,8.334886432E-1,-1.263037086E0,9.930929184E0
1.353925594E1,1.443253398E0,-1.963762403E0,9.770009995E0
1.355925594E1,1.556604505E0,-1.820301890E0,1.013580418E1
1.357925594E1,1.001140237E0,-1.738946915E0,1.034826565E1
1.359925594E1,8.797637224E-1,-1.056302547E0,1.069387341E1
1.361925594E1,1.782013774E0,-1.283512354E0,9.999478340E0
1.363925594E1,1.788114309E0,-2.230754137E0,9.024837494E0
1.365925594E1,1.435285568E0,-1.599661827E0,1.001445675E1
1.367925594E1,1.093211651E0,-1.291432381E0,1.034848595E1
1.369925594E1,1.312252283E0,-1.010697842E0,1.045407104E1
1.371925594E1,1.307368159E0,-1.482097030E0,1.006003284E1
1.373925594E1,1.507638335E0,-1.341327548E0,9.486314774E0
1.375925594E1,1.817237377E0,-1.207654476E0,9.183802605E0
1.377925594E1,2.060220003E0,-1.096620917E0,8.565802574E0
1.379925594E1,2.606634378E0,-1.044867873E0,8.500593185E0
1.381925594E1,2.774946690E0,-7.944056392E-1,8.421115875E0
1.383925594E1,2.420106888E0,-3.004914522E-1,7.906908035E0
1.385925594E1,2.663654566E0,-4.795681536E-1,7.910633564E0
1.387925594E1,2.237601757E0,-2.790298462E-1,8.057015419E0
1.389925594E1,2.328974009E0,-7.503427565E-2,8.122176170E0
1.391925594E1,2.343530655E0,-4.427357763E-2,8.127155304E0
1.393925594E1,2.600706339E0,1.839225739E-1,8.441954613E0
1.395925594E1,3.039103746E0,3.474465385E-2,8.735157967E0
1.397925594E1,2.938441992E0,7.646122575E-2,8.282644272E0
1.399925594E1,2.834370852E0,2.322662920E-1,8.696698189E0
1.401925594E1,2.477356911E0,5.012021661E-1,9.320196152E0
1.403925594E1,2.131864071E0,2.575682104E-1,9.787227631E0
1.405925594E1,1.788640976E0,-1.968991384E-2,9.744563103E0
1.407925594E1,1.820110321E0,-3.720301986E-1,1.021590519E1
1.409925594E1,1.648503542E0,-4.464036822E-1,1.065847874E1
1.411925594E1,1.520873427E0,-6.032430381E-2,1.086069202E1
1.413925594E1,1.504008770E0,4.219157696E-1,1.014504719E1
1.415925594E1,1.343376994E0,9.949344397E-2,9.491869926E0
1.417925594E1,9.636757374E-1,-4.055777490E-1,9.785120964E0
1.419925594E1,3.607583046E-1,-8.012147546E-1,9.974244118E0
1.421925594E1,1.309915632E-1,-5.881595612E-1,1.002501011E1
1.423925594E1,7.084921747E-2,-1.065994352E-1,9.998886108E0
1.425925594E1,-4.834371805E-2,2.140224725E-1,9.681117058E0
1.427925594E1,4.011724293E-1,5.659126639E-1,9.648718834E0
1.429925594E1,5.624937415E-1,7.991845012E-1,9.561694145E0
1.431925594E1,8.697176576E-1,8.748700023E-1,9.035620689E0
1.433925594E1,1.012565374E0,6.247237921E-1,8.655260086E0
1.435925594E1,1.254446745E0,5.501779318E-1,8.739927292E0
1.437925594E1,9.909983277E-1,3.067163825E-1,7.862634659E0
1.439925594E1,4.810717106E-1,1.347073615E-1,7.918055534E0
1.441925594E1,2.994284332E-1,4.831498861E-2,8.217522621E0
1.443925594E1,2.000211775E-1,-2.295273244E-1,8.027940750E0
1.445925594E1,1.453950703E-1,-1.784637868E-1,8.637446404E0
1.447925594E1,3.533554375E-1,-4.179414213E-1,8.575474739E0
1.449925594E1,2.140990794E-1,7.739975303E-2,8.682954788E0
1.451925594E1,8.958144486E-2,3.884352744E-2,8.919216156E0
1.453925594E1,-2.047521248E-2,1.307617128E-1,9.304557800E0
1.455925594E1,2.229384780E-1,-6.866570562E-2,9.623100281E0
1.457925594E1,5.146192908E-1,-3.445064425E-1,9.985333443E0
1.459925594E1,6.559346318E-1,-3.682760894E-1,9.708554268E0
1.461925594E1,8.915144801E-1,-2.918819189E-1,1.029280758E1
1.463925594E1,1.497563481E0,-2.613510378E-2,1.061809254E1
1.465925594E1,1.025426984E0,7.260368466E-1,1.085503197E1
1.467925594E1,8.049784899E-1,2.257866144E0,1.088737488E1
1.469925594E1,1.253929615E0,1.949962258E0,1.020104218E1
1.471925594E1,1.465749383E0,1.641397595E0,1.025090790E1
1.473925594E1,1.103171468E0,1.652094841E0,1.075181389E1
1.475925594E1,2.301115096E-1,1.972869992E0,1.070987701E1
1.477925594E1,2.909433842E-2,1.959874272E0,1.014386940E1
1.479925594E1,8.918879628E-1,9.655527472E-1,9.768476486E0
1.481925594E1,1.098229885E0,9.393602014E-1,1.001601887E1
1.483925594E1,6.878828406E-1,1.532442212E0,1.003524971E1
1.485925594E1,7.860929966E-1,1.175265670E0,9.412717819E0
1.487925594E1,1.322585702E0,1.066635966E0,9.020059586E0
1.489925594E1,1.454831839E0,1.129862070E0,8.668389320E0
1.491925594E1,1.180418015E0,1.205078244E0,8.236455917E0
1.493925594E1,1.422768712E0,9.928466678E-1,8.344472885E0
1.495925594E1,1.809891939E0,1.193499923E0,8.144012451E0
1.497925594E1,1.894876480E0,7.262379527E-1,7.522179127E0
1.499925594E1,1.701606989E0,3.981461525E-1,7.460542679E0
1.501925594E1,1.589261413E0,4.965191185E-1,7.762489796E0
1.503925594E1,1.460999250E0,4.314351380E-1,7.086740971E0
1.505925594E1,1.836553693E0,6.205675006E-1,7.139748573E0
1.507925594E1,1.896772742E0,1.389115751E-1,7.742627621E0
1.509925594E1,1.955622196E0,-2.206879258E-1,8.629813194E0
1.511925594E1,1.811472058E0,-2.127008699E-2,8.929309845E0
1.513925594E1,1.585440278E0,1.126998588E-1,8.481066704E0
1.515925594E1,1.718117356E0,-2.060258389E-1,8.550144196E0
1.517925594E1,1.378226995E0,-1.178186655E0,9.291974068E0
1.519925594E1,1.288769960E0,-3.254198730E-1,1.066855240E1
1.521925594E1,2.005067110E0,5.277777836E-2,9.640194893E0
1.523925594E1,2.233972073E0,-7.292929888E-1,8.799955368E0
1.525925594E1,2.035540581E0,-5.138244033E-1,9.181082726E0
1.527925594E1,1.730327845E0,-4.264551774E-2,8.178592682E0
1.529925594E1,2.126098871E0,-7.029567361E-1,7.388391018E0
1.531925594E1,1.728240013E0,2.211859226E-1,9.344750404E0
1.533925594E1,1.125159860E0,1.157797575E0,9.585100174E0
1.535925594E1,9.320148230E-1,1.327805042E0,9.212303162E0
1.537925594E1,1.392917752E0,1.075561523E0,7.749714375E0
1.539925594E1,1.741264462E0,6.492404342E-1,7.499472618E0
1.541925594E1,1.656988621E0,4.569764733E-1,8.977029800E0
1.543925594E1,1.201726437E0,7.283352613E-1,9.166248322E0
1.545925594E1,1.262031555E0,5.237364173E-1,8.180096626E0
1.547925594E1,1.966779113E0,4.513357282E-1,9.024896622E0
1.549925594E1,1.290781140E0,4.384357631E-1,9.654934883E0
1.551925594E1,9.790656567E-1,4.565455019E-1,9.181198120E0
1.553925594E1,1.129565120E0,6.773675084E-1,7.929461479E0
1.555925594E1,1.353518724E0,7.276744843E-1,9.028093338E0
1.557925594E1,1.544509053E0,-2.541684508E-1,1.032842255E1
1.559925594E1,1.891036183E-1,-1.142991856E-1,1.190569401E1
1.561925594E1,-3.280726671E-1,7.669872642E-1,9.427580833E0
1.563925594E1,2.913743258E-1,2.800641358E-1,9.371184349E0
1.565925594E1,-2.700180709E-1,5.687474012E-1,1.002879429E1
1.567925594E1,-9.228976965E-1,1.453538895E0,1.050673485E1
1.569925594E1,-7.262570858E-1,1.767629504E0,1.008130455E1
1.571925594E1,1.530373693E-1,2.134267807E0,1.023487663E1
1.573925594E1,4.351221919E-1,2.285332441E0,9.866715431E0
1.575925594E1,1.322269589E-1,2.511469603E0,9.451322556E0
1.577925594E1,1.048660278E-1,2.667217255E0,1.013969231E1
1.579925594E1,6.790817380E-1,2.126596928E0,1.034775925E1
1.581925594E1,2.080465406E-1,2.038768053E0,9.794794083E0
1.583925594E1,6.690356880E-2,2.355319738E0,9.379974365E0
1.585925594E1,1.815092117E-1,2.504449844E0,9.750538826E0
1.587925594E1,4.099639356E-1,1.984994292E0,9.913134575E0
1.589925594E1,5.852769613E-1,2.376905918E0,9.718926430E0
1.591925594E1,6.414449215E-1,2.822945595E0,9.641660690E0
1.593925594E1,8.377311230E-1,2.196823597E0,9.209612846E0
1.595925594E1,8.711350560E-1,2.286366701E0,9.139251709E0
1.597925594E1,4.363288879E-1,2.140866280E0,9.150371552E0
1.599925594E1,8.594226241E-1,2.075102329E0,9.265636444E0
1.601925594E1,7.319648862E-1,1.790575504E0,9.385116577E0
1.603925594E1,7.867633700E-1,2.445724726E0,8.461922646E0
1.605925594E1,7.606666088E-1,2.589779139E0,9.412123680E0
1.607925594E1,6.109523773E-1,2.498828173E0,8.799974442E0
1.609925594E1,-1.250252128E-1,2.866788149E0,9.249557495E0
1.611925594E1,3.826892003E-2,2.722753048E0,9.273049355E0
1.613925594E1,2.662352100E-2,2.945567131E0,9.339675903E0
1.615925594E1,5.045061558E-2,3.204782486E0,9.859494209E0
1.617925594E1,-2.679781914E-1,3.214943409E0,9.398765564E0
1.619925594E1,-8.399816602E-2,3.134910107E0,9.291350365E0
1.621925594E1,-1.248911321E-1,3.137467146E0,9.339925766E0
1.623925594E1,-2.741073668E-1,2.897233009E0,9.412785530E0
1.625925594E1,-3.080475628E-1,2.907441854E0,9.846672058E0
1.627925594E1,-2.762812972E-1,2.890031099E0,9.775448799E0
1.629925594E1,-1.648264080E-1,2.937082052E0,9.871399879E0
1.631925594E1,-2.100193650E-1,2.945787430E0,9.912914276E0
1.633925594E1,-4.012681916E-2,3.181031942E0,9.985640526E0
1.635925594E1,-1.333283037E-1,3.133368254E0,1.005134678E1
1.637925594E1,1.387200356E-1,3.246182919E0,9.679910660E0
1.639925594E1,3.266457021E-1,3.498177528E0,9.827317238E0
1.641925594E1,2.126051113E-2,3.074403763E0,1.007006931E1
1.643925594E1,-2.285504788E-1,2.887742281E0,1.002812290E1
1.645925594E1,-4.130859673E-1,2.963887453E0,9.906344414E0
1.647925594E1,-7.474218607E-1,3.123446703E0,1.006872940E1
1.649925594E1,-7.255484462E-1,2.812468529E0,1.022881413E1
1.651925594E1,-9.994642735E-1,2.753092527E0,1.019127369E1
1.653925594E1,-5.561730266E-1,2.787951946E0,1.015291882E1
1.655925594E1,5.274713635E-1,2.824439526E0,9.212082863E0
1.657925594E1,-1.916989386E-1,2.440476656E0,8.769080162E0
1.659925594E1,-1.094063997E0,2.638036728E0,9.680130959E0
1.661925594E1,-7.477762103E-1,2.469274282E0,9.668685913E0
1.663925594E1,-5.433400869E-1,2.104972363E0,9.163482666E0
1.665925594E1,-5.416833162E-1,2.147972345E0,9.292882919E0
1.667925594E1,-9.545873404E-1,1.892003417E0,9.284071922E0
1.669925594E1,-1.436865687E0,2.144888639E0,9.243227959E0
1.671925594E1,-8.972701430E-1,1.933059216E0,8.845664978E0
1.673925594E1,-7.559356093E-1,2.091833115E0,9.168432236E0
1.675925594E1,2.011129260E-2,1.800362945E0,9.823698044E0
1.677925594E1,-1.127582788E0,1.253048539E0,9.233076096E0
1.679925594E1,-2.474646717E-1,1.756022334E0,8.181149483E0
1.681925594E1,-3.473795056E-1,1.824065566E0,8.467593193E0
1.683925594E1,-5.632215738E-1,1.543704629E0,8.644628525E0
1.685925594E1,-1.203162909E0,1.333378792E0,9.227549553E0
1.687925594E1,-1.781075358E0,1.455128670E0,9.240852356E0
1.689925594E1,-2.326780796E0,1.500350356E0,8.882870674E0
1.691925594E1,-1.394172311E0,1.342055321E0,8.343563080E0
1.693925594E1,-1.031326294E0,9.408063293E-1,8.296818733E0
1.695925594E1,-1.496462226E0,8.477771878E-1,8.859130859E0
1.697925594E1,-2.306497097E0,7.603026628E-1,9.100638390E0
1.699925594E1,-1.099532247E0,8.958336115E-1,9.163682938E0
1.701925594E1,1.361151487E-1,4.264073074E-1,8.913076401E0
1.703925594E1,-7.121887803E-1,9.930286407E-1,8.977059364E0
1.705925594E1,-5.986174345E-1,6.843681335E-1,9.423098564E0
1.707925594E1,-2.565147579E-1,1.120122433E0,8.913689613E0
1.709925594E1,-2.482787073E-1,8.621711731E-1,8.736010551E0
1.711925594E1,-5.658264756E-1,8.701581955E-1,8.362237930E0
1.713925594E1,-2.252560705E-1,5.856983066E-1,8.683816910E0
1.715925594E1,6.770802196E-3,5.329779983E-1,8.878915787E0
1.717925594E1,-3.925341368E-1,7.709712386E-1,8.986463547E0
1.719925594E1,-9.998952150E-1,1.008092999E0,9.452528000E0
1.721925594E1,-1.533026457E0,1.044772148E0,9.044183731E0
1.723925594E1,-6.801543832E-1,1.053946733E0,9.043187141E0
1.725925594E1,-4.356201887E-1,1.419349790E0,8.733702660E0
1.727925594E1,-7.089996934E-1,7.582244873E-1,8.946557999E0
1.729925594E1,-1.435170650E0,8.331055641E-1,8.955970764E0
1.731925594E1,-2.260480642E0,1.242197990E0,9.012607574E0
1.733925594E1,-2.958237171E0,2.187026501E0,8.430089951E0
1.735925594E1,-2.296489477E0,2.399593353E0,8.812395096E0
1.737925594E1,-2.052520275E0,1.841045260E0,8.852857590E0
1.739925594E1,-1.111876845E0,2.355578423E0,1.225966263E1
1.741925594E1,-4.229213595E-1,1.019537210E0,7.254823685E0
1.743925594E1,4.766472280E-1,6.153768301E-1,9.356100082E0
1.745925594E1,-9.937181473E-1,1.708463907E0,9.496313095E0
1.747925594E1,-1.074479342E0,1.464475632E0,1.040884018E1
1.749925594E1,-1.695267081E0,5.223190188E-1,9.477170944E0
1.751925594E1,-1.955239058E0,1.003275871E0,9.178689003E0
1.753925594E1,-1.593427300E0,1.120553374E0,9.691001892E0
1.755925594E1,-6.874902248E-1,2.787616849E-1,9.506293297E0
1.757925594E1,-3.460195959E-1,-5.619574189E-1,7.750250816E0
1.759925594E1,-1.465442926E-1,-2.077113539E-1,9.869455338E0
1.761925594E1,-1.753800511E-1,6.969042122E-2,8.828847885E0
1.763925594E1,-3.946602046E-1,3.613616228E-1,8.618198395E0
1.765925594E1,-1.332325339E0,7.397795916E-1,8.309958458E0
1.767925594E1,-3.083904028E0,1.519877434E0,8.973266602E0
1.769925594E1,-4.134881973E0,2.068513632E0,9.071141243E0
1.771925594E1,-4.325929642E0,2.664746284E0,9.628176689E0
1.773925594E1,-2.781123638E0,2.278053999E0,9.543795586E0
1.775925594E1,-1.136470079E0,1.167221189E0,9.722144127E0
1.777925594E1,9.350506663E-1,-1.594643593E0,8.698297501E0
1.779925594E1,3.361123800E0,-8.494435549E-1,9.826463699E0
1.781925594E1,1.837549686E0,-7.131847739E-1,1.077535343E1
1.783925594E1,1.056513265E-1,-2.080484629E0,9.240422249E0
1.785925594E1,5.625415966E-2,-7.370885015E-1,8.505793571E0
1.787925594E1,-7.196874022E-1,4.132392108E-1,9.299040794E0
1.789925594E1,-1.933336973E0,8.476240039E-1,8.965806961E0
1.791925594E1,-4.181578636E0,1.022170901E0,9.184731483E0
1.793925594E1,-5.111859798E0,1.586551189E0,9.359815598E0
1.795925594E1,-3.353251696E0,1.694117904E0,8.845215797E0
1.797925594E1,-3.040319920E0,1.754365563E0,8.655949593E0
1.799925594E1,-3.894245625E0,1.248547435E0,9.304059982E0
1.801925594E1,-4.530097485E0,1.203976989E0,1.006849861E1
1.803925594E1,-3.752575874E0,1.275151730E0,9.977568626E0
1.805925594E1,-2.990645170E0,1.425143719E0,9.699484825E0
1.807925594E1,-2.674131632E0,1.424090266E0,1.051353264E1
1.809925594E1,-2.025379658E0,1.094944954E0,1.082174492E1
1.811925594E1,-9.689908624E-1,9.039164782E-1,1.055645657E1
1.813925594E1,-5.515666008E-1,9.759340286E-1,1.074273491E1
1.815925594E1,1.329069138E-1,5.589119792E-1,1.060926437E1
1.817925594E1,8.033503890E-1,3.365672827E-1,1.050017357E1
1.819925594E1,1.285351038E0,1.309341043E-1,1.051932716E1
1.821925594E1,6.899322987E0,3.244622052E-1,5.025467396E0
1.823925594E1,5.146872520E0,-3.845470905E0,5.084115982E0
1.825925594E1,-4.460378647E0,2.986077070E0,1.872428513E1
1.827925594E1,-2.066004425E-1,-5.417599678E-1,9.181485176E0
1.829925594E1,-7.528710365E-1,-1.617838621E0,6.812058926E0
1.831925594E1,-1.421590686E0,-9.686365128E-1,6.918026447E0
1.833925594E1,-2.382604122E0,-6.667372584E-2,8.179130554E0
1.835925594E1,-2.663530111E0,1.003898263E0,9.232605934E0
1.837925594E1,-2.365375519E0,1.447160840E0,6.371650219E0
1.839925594E1,-4.912595272E0,3.163889647E-1,7.177270412E0
1.841925594E1,-4.548571110E0,1.420355320E0,1.114582348E1
1.843925594E1,-3.009262323E0,-1.633803174E-2,6.483775616E0
1.845925594E1,-3.250990629E0,-1.293941498E0,7.196644306E0
1.847925594E1,-1.983117223E0,-1.409284472E0,9.145400047E0
1.849925594E1,-5.984163284E-1,-2.018465281E0,8.829326630E0
1.851925594E1,-8.109352589E-1,-2.069844723E0,9.308291435E0
1.853925594E1,-8.703401685E-2,-3.006609678E0,8.568636894E0
1.855925594E1,9.560526162E-2,-4.071301460E0,7.770496368E0
1.857925594E1,8.752243221E-2,-4.151612759E0,9.190765381E0
1.859925594E1,3.208709061E-1,-3.492967844E0,9.701132774E0
1.861925594E1,-4.921712279E-1,-3.548570633E0,8.966659546E0
1.863925594E1,-7.554664016E-1,-3.835731268E0,7.981023312E0
1.865925594E1,-1.834360600E0,-3.263449907E0,8.809896469E0
1.867925594E1,-1.686657548E0,-2.294794321E0,8.741202354E0
1.869925594E1,-1.452044964E0,-1.456086397E0,8.642952919E0
1.871925594E1,-2.124288797E0,-3.628268838E-1,9.315407753E0
1.873925594E1,-3.171110392E0,-5.571785942E-2,9.303121567E0
1.875925594E1,-1.565300226E0,1.407503188E-1,8.806028366E0
1.877925594E1,-1.307818294E0,4.789552391E-1,9.125030518E0
1.879925594E1,-3.835031986E-1,2.190407217E-1,9.132288933E0
1.881925594E1,2.869498432E-1,-5.605592132E-1,1.024008656E1
1.883925594E1,1.050001085E-1,-2.590909302E-1,9.967061996E0
1.885925594E1,6.435518265E-1,-1.241585016E0,8.287347794E0
1.887925594E1,7.089614272E-1,-1.510655046E0,8.735522270E0
1.889925594E1,1.174461246E0,-2.243979931E0,8.895943642E0
1.891925594E1,1.574331164E0,-2.059750795E0,8.503170013E0
1.893925594E1,1.020418286E0,-1.575547457E0,8.064389229E0
1.895925594E1,2.074326754E0,-2.349152327E0,1.130790043E1
1.897925594E1,1.869201064E0,-3.094926834E0,8.840493202E0
1.899925594E1,2.009463072E0,-2.479866028E0,8.703420639E0
1.901925594E1,1.992588639E0,-2.543341160E0,9.474211693E0
1.903925594E1,1.926374555E0,-3.401260138E0,7.747138500E0
1.905925594E1,1.600724936E0,-3.298577785E0,7.074578285E0
1.907925594E1,2.026586294E0,-2.662112713E0,8.347642899E0
1.909925594E1,2.301670551E0,-2.822610378E0,9.512240410E0
1.911925594E1,2.537144899E0,-3.873980999E0,9.456369400E0
1.913925594E1,2.601146698E0,-4.687291145E0,8.348620415E0
1.915925594E1,2.261237144E0,-4.782628536E0,7.411365986E0
1.917925594E1,3.141029596E0,-5.208786488E0,7.428240299E0
1.919925594E1,3.343991041E0,-5.713168144E0,7.842015743E0
1.921925594E1,4.293550491E0,-7.229569435E0,7.942888260E0
1.923925594E1,3.027180672E0,-6.811532497E0,7.960768223E0
1.925925594E1,2.863618374E0,-6.140906811E0,7.408770561E0
1.927925594E1,3.075045586E0,-4.306833267E0,7.425807953E0
1.929925594E1,2.665445566E0,-3.423746586E0,6.378440380E0
1.931925594E1,3.794713736E0,-5.184078693E0,6.944755077E0
1.933925594E1,4.237957001E0,-6.251978874E0,7.321966648E0
1.935925594E1,4.685241699E0,-5.925189495E0,7.624603271E0
1.937925594E1,3.467589140E0,-5.566920757E0,7.260435581E0
1.939925594E1,4.097016335E0,-5.871512413E0,6.957090378E0
1.941925594E1,3.984382391E0,-5.721567154E0,6.598851681E0
1.943925594E1,4.120191097E0,-6.390603065E0,5.602096558E0
1.945925594E1,4.155318737E0,-7.589495659E0,6.087037086E0
1.947925594E1,4.781536579E0,-7.960126400E0,6.755440712E0
1.949925594E1,4.410148144E0,-7.265903950E0,5.736947536E0
1.951925594E1,4.005652428E0,-9.046654701E0,4.029125214E0
1.953925594E1,3.939122438E0,-1.018265438E1,4.131367207E0
1.955925594E1,4.360951900E0,-9.832478523E0,5.315366745E0
1.957925594E1,5.951985359E0,-8.008078575E0,9.406847954E0
1.959925594E1,5.159131050E0,-8.160080910E0,8.587512970E0
1.961925594E1,7.921724796E0,-6.735683918E0,5.814040661E0
1.963925594E1,6.466269493E0,-4.774056911E0,5.383936882E0
1.965925594E1,5.230621815E0,-2.459764481E0,4.945941567E-1
1.967925594E1,4.954781055E0,-1.071855307E0,1.678708792E0
1.969925594E1,2.226712942E0,-5.814462304E-1,2.596358299E0
1.971925594E1,5.834774494E0,1.230811179E-1,-5.857174844E-2
1.973925594E1,5.126100540E0,1.657496214E0,-1.696512103E0
1.975925594E1,2.788316011E0,2.369244337E0,-8.595662713E-1
1.977925594E1,6.340324879E-1,3.054043531E0,-2.657094479E0
1.979925594E1,1.084554195E0,2.826565742E0,-3.413269520E0
1.981925594E1,1.328801036E0,5.532310486E0,-2.146612406E0
1.983925594E1,4.389778137E0,5.485374451E0,-3.545793533E0
1.985925594E1,5.757758141E0,4.794398308E0,-2.071396112E0
1.987925594E1,7.959178448E0,5.829699039E0,1.071424365E0
1.989925594E1,1.131085014E1,6.177614689E0,2.980675697E0
1.991925594E1,1.341394615E1,3.952846050E0,3.908907652E0
1.993925594E1,1.471977329E1,6.350801945E0,6.947810173E0
1.995925594E1,1.491516685E1,9.604379654E0,5.318115711E0
1.997925594E1,1.279733276E1,1.129235744E1,4.650947094E0
1.999925594E1,1.380002499E1,1.214113045E1,3.817870378E0
2.001925594E1,1.615381241E1,1.050296116E1,5.024414062E0
2.003925594E1,1.885389900E1,9.051164627E0,8.533279419E0
2.005925594E1,1.844802284E1,7.168249130E0,1.029542160E1
2.007925594E1,1.764081192E1,4.782063484E0,8.869818687E0
2.009925594E1,1.270726490E1,4.500888348E0,9.991539955E0
2.011925594E1,9.256184578E0,5.760238171E0,5.191040993E0
2.013925594E1,5.994927406E0,6.865085602E0,1.698839307E0
2.015925594E1,4.063937187E0,7.463463783E0,-1.599633098E0
2.017925594E1,7.031166553E0,9.414201736E0,-1.643657684E0
2.019925594E1,4.283772469E0,1.031992912E1,4.495745659E0
2.021925594E1,3.043911219E0,7.905893326E0,-1.517253399E0
2.023925594E1,4.377740383E0,5.615714550E0,-1.083769989E1
2.025925594E1,1.439949417E1,3.108334541E0,-1.172556400E1
2.027925594E1,1.318382549E1,3.500629187E0,-4.882102489E0
2.029925594E1,8.904466629E0,5.047456026E-1,9.176113009E-1
2.031925594E1,4.673902988E0,2.525403909E-2,-2.354304552E0
2.033925594E1,2.984027624E0,1.050537348E0,-5.090321541E0
2.035925594E1,9.626961708E0,9.319860935E-1,-3.635384560E0
2.037925594E1,9.177598000E0,1.084104061E0,1.171320081E0
2.039925594E1,6.728300095E0,1.737041175E-1,-2.893114805E0
2.041925594E1,6.412763596E0,4.509430826E-1,-3.370758057E0
2.043925594E1,5.885158062E0,1.431445241E0,-1.977122068E0
2.045925594E1,6.089402676E0,3.442392588E0,-2.618940592E0
2.047925594E1,1.032595253E1,5.070899963E0,-1.577347875E0
2.049925594E1,7.186617374E0,5.974940777E0,6.749924421E-1
2.051925594E1,8.665153503E0,6.181981564E0,1.119116902E0
2.053925594E1,8.753421783E0,5.399910927E0,7.925956249E-1
2.055925594E1,7.608925819E0,2.781315327E0,-3.284518957E0
2.057925594E1,6.716176033E0,1.506240070E-1,-4.250014305E0
2.059925594E1,6.256843567E0,2.961464643E0,-6.184462070E0
2.061925594E1,7.378929138E0,5.384607315E0,-6.272051811E0
2.063925594E1,7.230383396E0,4.642241955E0,-2.091641665E0
2.065925594E1,7.769452572E0,2.621574163E0,-4.574380875E0
2.067925594E1,8.863470078E0,1.518278122E0,-5.140216827E0
2.069925594E1,9.325751305E0,3.985636950E0,-6.714126587E0
2.071925594E1,1.052321625E1,4.966014862E0,1.167460561E0
2.073925594E1,1.091976357E1,3.722150326E0,5.895625591E0
2.075925594E1,9.408369064E0,3.757210970E0,1.940739870E0
2.077925594E1,7.934134960E0,3.886335135E0,-1.766030192E0
2.079925594E1,6.858132839E0,3.756483078E0,-3.922793865E0
2.081925594E1,6.659979343E0,4.416401863E0,-5.758849621E0
2.083925594E1,6.934643269E0,6.545450211E0,-5.722314358E0
2.085925594E1,7.867212296E0,7.048098564E0,-2.019106865E0
2.087925594E1,7.169331551E0,1.091798115E1,-2.347370982E-1
2.089925594E1,7.064273834E0,9.614012718E0,-1.412416101E0
2.091925594E1,6.126579762E0,8.337654114E0,-2.364647627E0
2.093925594E1,4.522886276E0,8.064370155E0,-1.940519571E0
2.095925594E1,5.824489117E0,6.332634449E0,-2.830607176E0
2.097925594E1,4.984632015E0,8.620553017E0,-4.567083120E-1
2.099925594E1,5.274914742E0,9.200151443E0,-7.450851202E-1
2.101925594E1,4.584972858E0,9.518321037E0,-2.143413782E0
2.103925594E1,5.668482780E0,7.860977650E0,-6.557909846E-1
2.105925594E1,6.284204483E0,7.845444202E0,-6.674076319E-1
2.107925594E1,6.495459557E0,8.221822739E0,-1.310317755E0
2.109925594E1,5.702049732E0,7.618847370E0,-3.816405296E0
2.111925594E1,5.178821087E0,7.631910324E0,-5.492461205E0
2.113925594E1,6.762010574E0,7.533585072E0,-1.856339455E0
2.115925594E1,7.329417229E0,6.695767879E0,9.071725607E-1
2.117925594E1,5.573059559E0,7.733730793E0,1.421935439E0
2.119925594E1,4.357054234E0,7.932574272E0,-3.385209560E0
2.121925594E1,3.101937056E0,8.601791382E0,-3.296719790E0
2.123925594E1,4.166724682E0,7.389875412E0,-1.049972296E0
2.125925594E1,3.045692682E0,6.448810577E0,-1.106532931E0
2.127925594E1,1.759833932E0,6.177433014E0,-5.912863731E0
2.129925594E1,2.771748066E0,7.890513897E0,-6.934556007E0
2.131925594E1,5.522733688E0,9.085257530E0,-2.784207582E0
2.133925594E1,7.291042805E0,9.545845032E0,2.207913637E0
2.135925594E1,6.110232353E0,1.286158562E1,3.724563599E0
2.137925594E1,5.052876472E0,1.226303387E1,1.622100353E0
2.139925594E1,4.694780350E0,1.048316479E1,1.019939423E0
2.141925594E1,6.144517422E0,6.999563217E0,-5.826241970E-1
2.143925594E1,7.469794273E0,6.325308323E0,-3.013064384E0
2.145925594E1,8.414087296E0,7.941221714E0,-2.436885357E0
2.147925594E1,7.149651051E0,6.756647587E0,-4.140149057E-1
2.149925594E1,7.880648613E0,4.761271954E0,-1.377527833E0
2.151925594E1,8.504921913E0,4.528115273E0,4.601081014E-1
2.153925594E1,8.791002274E0,5.221696377E0,7.727333307E-1
2.155925594E1,7.849801540E0,6.606789589E0,9.811629653E-1
2.157925594E1,1.208033657E1,4.655103683E0,5.649741292E-1
2.159925594E1,9.768296242E0,3.937867880E0,2.368104696E0
2.161925594E1,9.078295708E0,3.023962736E0,1.957259774E0
2.163925594E1,9.856200218E0,2.276397228E0,4.995740950E-1
2.165925594E1,8.526422501E0,2.068053961E0,9.313444048E-2
2.167925594E1,8.567305565E0,2.444613934E0,-1.544202566E0
2.169925594E1,6.782734871E0,3.313661098E0,-1.756194830E-1
2.171925594E1,7.301500797E0,3.696781397E0,1.737893462E0
2.173925594E1,8.174628258E0,2.365720272E0,1.583678126E0
2.175925594E1,8.039011002E0,3.216351271E0,1.284153908E-1
2.177925594E1,7.561444283E0,3.648811102E0,5.443456769E-2
2.179925594E1,7.888999462E0,3.070391178E0,1.703158379E0
2.181925594E1,8.115988731E0,2.106150389E0,3.154255152E0
2.183925594E1,8.552116394E0,1.903869152E0,2.694329023E0
2.185925594E1,8.306156158E0,2.653417110E0,2.362952471E0
2.187925594E1,7.281868458E0,3.047837734E0,1.511785030E0
2.189925594E1,6.643392086E0,4.945261478E0,5.384846926E-1
2.191925594E1,7.639447212E0,6.268528461E0,-1.901178002E0
2.193925594E1,8.140659332E0,4.849819183E0,-4.551760256E-1
2.195925594E1,9.478252411E0,4.452266693E0,1.347897172E0
2.197925594E1,9.260637283E0,6.190581799E0,-1.240608215E0
2.199925594E1,7.467639446E0,7.951105118E0,-4.092466354E0
2.201925594E1,8.952322006E0,7.338497162E0,-2.307608128E0
2.203925594E1,1.122408581E1,2.565147638E0,4.945041656E0
2.205925594E1,1.088419533E1,2.432748318E0,6.245514393E0
2.207925594E1,9.779978752E0,2.431340456E0,5.601090789E-1
2.209925594E1,9.196962357E0,2.736064911E0,-1.880310178E0
2.211925594E1,8.165281296E0,2.946744919E0,-2.222748041E0
2.213925594E1,7.461576939E0,2.363115311E0,-3.664641619E0
2.215925594E1,7.629726887E0,5.301605225E0,-5.548533440E0
2.217925594E1,7.850722313E0,8.736451149E0,-5.312331200E0
2.219925594E1,8.361413956E0,8.739066124E0,-2.155863523E0
2.221925594E1,8.499013901E0,6.811848164E0,8.139998317E-1
2.223925594E1,9.026005745E0,5.033770561E0,1.086258888E0
2.225925594E1,8.353466034E0,5.773013592E0,-7.024779320E-1
2.227925594E1,6.638431549E0,7.910108089E0,-3.247504711E0
2.229925594E1,5.963659286E0,7.306021214E0,-4.398770809E0
2.231925594E1,6.975774288E0,6.147217751E0,-2.713061333E0
2.233925594E1,7.450487137E0,6.428469658E0,-1.924918890E0
2.235925594E1,6.449404716E0,7.876378536E0,-2.744387150E0
2.237925594E1,6.416306973E0,7.892236710E0,-3.503914118E0
2.239925594E1,6.948365688E0,7.408636570E0,-2.229595423E0
2.241925594E1,6.514900208E0,7.402641296E0,-1.707410455E0
2.243925594E1,6.334808350E0,6.896181583E0,-3.178819656E0
2.245925594E1,5.857021332E0,7.337117195E0,-4.755228996E0
2.247925594E1,5.920247555E0,7.545020103E0,-4.476323605E0
2.249925594E1,6.180631638E0,7.145360470E0,-4.154878139E0
2.251925594E1,5.738862991E0,7.276754379E0,-1.676669002E0
2.253925594E1,6.374408722E0,7.343495369E0,-1.096860409E0
2.255925594E1,6.203922272E0,6.416709423E0,-3.861942887E-1
2.257925594E1,5.588545322E0,8.569231033E0,-2.693189383E0
2.259925594E1,6.683241367E0,7.238016129E0,-3.709690809E0
2.261925594E1,6.989976883E0,5.735683441E0,-2.570089340E0
2.263925594E1,5.310387135E0,7.444990158E0,5.743594170E-1
2.265925594E1,4.210931301E0,8.015566826E0,-6.410139799E-1
2.267925594E1,3.709949493E0,9.317054749E0,-3.289891481E0
2.269925594E1,4.421630859E0,8.873966217E0,-2.041363239E0
2.271925594E1,4.691236973E0,7.981808662E0,1.402810574E0
2.273925594E1,3.733843565E0,8.798192978E0,-8.827708364E-1
2.275925594E1,4.024059296E0,1.120342731E1,-6.150167465E0
2.277925594E1,4.578977585E0,1.085504150E1,-3.516411781E-1
2.279925594E1,4.567791939E0,9.407413483E0,4.610312939E0
2.281925594E1,2.339374304E0,9.520543098E0,-5.144085884E-1
2.283925594E1,2.323227882E0,9.050139427E0,-3.547545910E0
2.285925594E1,4.144956589E0,8.928236008E0,-1.187504888E0
2.287925594E1,5.821041584E0,6.920315266E0,5.717353430E-3
2.289925594E1,6.410647392E0,5.213105679E0,-2.097674847E0
2.291925594E1,4.753064632E0,7.038043022E0,-4.447507381E0
2.293925594E1,7.189250946E0,7.178314209E0,-3.266150713E0
2.295925594E1,7.615294456E0,6.816732407E0,-3.361171782E-1
2.297925594E1,6.554557800E0,6.005404472E0,-1.301679462E-1
2.299925594E1,4.734974384E0,5.810564518E0,-1.771077156E0
2.301925594E1,2.892540216E0,1.112782860E1,-2.523354530E0
2.303925594E1,1.714066386E0,1.130600452E1,-5.003670692E0
2.305925594E1,3.379798651E0,7.355486393E0,4.371333420E-1
2.307925594E1,2.330573320E0,9.777527809E0,-2.738181353E0
2.309925594E1,3.043346167E0,8.258300781E0,-3.956121206E0
2.311925594E1,4.591619015E0,8.879424095E0,-6.564804912E-1
2.313925594E1,4.050749779E0,9.408618927E0,-1.908437252E0
2.315925594E1,1.936727166E0,9.205331802E0,-2.636820316E0
2.317925594E1,1.659267902E0,9.616886139E0,-3.434396029E0
2.319925594E1,2.191451073E0,1.022837448E1,-4.354957044E-1
2.321925594E1,1.867486835E0,1.067782307E1,8.319659233E-1
2.323925594E1,1.047501564E0,1.008889771E1,-3.018896580E-1
2.325925594E1,5.992590785E-1,1.041950893E1,-1.915236831E0
2.327925594E1,2.012757301E0,1.023857307E1,-1.501451731E0
2.329925594E1,2.479741573E0,1.004672146E1,-4.765993357E-1
2.331925594E1,3.056753874E0,1.000938225E1,-3.014682829E-1
2.333925594E1,2.537001371E0,9.838598251E0,-1.607802153E0
2.335925594E1,2.074211836E0,9.915815353E0,-1.651472330E0
2.337925594E1,2.172728300E0,1.006190014E1,-1.632941246E0
2.339925594E1,3.049283981E0,9.253484726E0,-5.171762705E-1
2.341925594E1,3.670215368E0,9.578051567E0,-7.365521789E-1
2.343925594E1,2.721297503E0,9.478356361E0,-5.500917435E-1
2.345925594E1,2.550638676E0,9.327465057E0,-4.350838959E-1
2.347925594E1,1.835806727E0,9.146158218E0,2.799683511E-1
2.349925594E1,1.056407928E0,9.605069160E0,1.872361451E-1
2.351925594E1,1.100825191E0,9.739909172E0,-4.635461569E-1
2.353925594E1,2.377738953E0,9.376794815E0,-4.627704322E-1
2.355925594E1,3.305377245E0,9.156930923E0,-7.630608082E-1
2.357925594E1,3.037877798E0,9.000617981E0,-5.358797908E-1
2.359925594E1,2.167643070E0,8.555181503E0,-1.079172015E0
2.361925594E1,1.392506003E0,9.208693504E0,-1.628583789E0
2.363925594E1,1.904501200E0,8.203722954E0,8.269284964E-1
2.365925594E1,3.125438690E0,9.250467300E0,2.424081266E-1
2.367925594E1,2.633985758E0,9.176649094E0,3.436253965E-1
2.369925594E1,1.945260048E0,8.938349724E0,-3.325641751E-1
2.371925594E1,1.279739022E0,8.704751968E0,-8.007167578E-1
2.373925594E1,5.667074919E-1,8.155733109E0,5.920956135E-1
2.375925594E1,-5.363011733E-3,6.510045052E0,1.277172446E0
2.377925594E1,-2.462101132E-1,4.613952160E0,-7.243800759E-1
2.379925594E1,6.562889814E-1,7.777793884E0,-5.648974776E-1
2.381925594E1,8.825505972E-1,5.806025028E0,-3.346327841E-1
2.383925594E1,1.580910444E0,6.305350304E0,-5.632598400E-1
2.385925594E1,3.111810923E0,7.800318241E0,1.227258205E0
2.387925594E1,3.374062061E0,9.502346992E0,1.385639429E0
2.389925594E1,3.023187160E0,1.143705273E1,6.170336530E-2
2.391925594E1,2.921404839E0,1.248554230E1,1.030454755E0
2.393925594E1,3.022152901E0,1.149575996E1,1.088145494E0
2.395925594E1,2.173370123E0,1.140573692E1,5.167453289E-1
2.397925594E1,1.127486944E0,1.122648811E1,1.277268291E0
2.399925594E1,4.008755386E-1,1.053097248E1,9.226295352E-2
2.401925594E1,4.750479162E-1,9.022960663E0,-3.340591192E0
2.403925594E1,2.608626187E-1,1.010146332E1,3.321447134E0
2.405925594E1,2.101907969E0,1.449260044E1,1.224375486E0
2.407925594E1,4.725866616E-1,1.656746483E1,1.202329755E0
2.409925594E1,-1.612552285E0,1.246496010E1,7.313902974E-1
2.411925594E1,-6.200120449E-1,9.158147812E0,4.054628313E-1
2.413925594E1,1.638591588E-1,9.625573158E0,8.362563252E-1
2.415925594E1,2.483648956E-1,9.680246353E0,9.103520513E-1
2.417925594E1,3.665426970E-1,9.724902153E0,9.157055020E-1
2.419925594E1,4.245877266E-1,9.734527588E0,7.502661943E-1
2.421925594E1,3.942771256E-1,9.616599083E0,7.059063911E-1
2.423925594E1,3.400723934E-1,9.652493477E0,7.487913370E-1
2.425925594E1,3.077602386E-1,9.742437363E0,7.382568717E-1
2.427925594E1,6.422493458E-1,9.659435272E0,7.750126123E-1
2.429925594E1,3.953305781E-1,9.708096504E0,8.670170307E-1
2.431925594E1,4.621096253E-1,9.754494667E0,6.587119102E-1
2.433925594E1,5.898737907E-1,9.803135872E0,6.879786253E-1
2.435925594E1,5.774431229E-1,9.729115486E0,6.992983818E-1
2.437925594E1,4.641111791E-1,9.675418854E0,7.009743452E-1
2.439925594E1,4.080390036E-1,9.605749130E0,6.838510036E-1
2.441925594E1,4.430996776E-1,9.560133934E0,7.635683417E-1
2.443925594E1,4.472272694E-1,9.830687523E0,7.270041108E-1
2.445925594E1,3.309457004E-1,9.737552643E0,7.692952752E-1
2.447925594E1,3.018226326E-1,9.612596512E0,6.587885022E-1
2.449925594E1,4.706521630E-1,9.670324326E0,7.303176522E-1
2.451925594E1,5.608273745E-1,9.855309486E0,7.886883020E-1
2.453925594E1,9.135124087E-1,9.330624580E0,8.682236671E-1
2.455925594E1,5.765429139E-1,9.805309296E0,6.583671570E-1
2.457925594E1,5.173965693E-1,9.788990021E0,7.004572153E-1
2.459925594E1,5.197141171E-1,9.632650375E0,8.148617148E-1
2.461925594E1,3.954646289E-1,9.727009773E0,8.090485930E-1
2.463925594E1,5.692645311E-1,9.574805260E0,7.468951344E-1
2.465925594E1,5.866368413E-1,9.585415840E0,1.048583746E0
2.467925594E1,-3.542460874E-2,1.060943508E1,-1.970140636E-1
2.469925594E1,2.324386686E-1,1.030005646E1,7.165175080E-1
2.471925594E1,-3.382240832E-1,1.079390430E1,7.442231774E-1
2.473925594E1,-9.457191825E-1,1.085968781E1,8.935256004E-1
2.475925594E1,-9.957101345E-1,1.047647095E1,4.717918038E-1
2.477925594E1,-1.293347776E-1,1.088118744E1,6.890320778E-1
2.479925594E1,8.342356086E-1,1.085253239E1,8.370032907E-1
2.481925594E1,-5.602431670E-2,1.073152065E1,7.582819462E-1
2.483925594E1,-3.629609710E-3,1.134621811E1,1.943708658E-1
2.485925594E1,8.406233191E-1,1.005149078E1,-9.411031604E-1
2.487925594E1,9.647387266E-1,9.026236534E0,4.903516471E-1
2.489925594E1,2.475815058E0,7.264582157E0,5.466920137E-1
2.491925594E1,3.745421886E0,6.970363617E0,1.352360010E0
2.493925594E1,4.812096119E0,6.049314499E0,1.409839988E0
2.495925594E1,4.999514103E0,5.784927368E0,1.077208757E0
2.497925594E1,3.469102383E0,8.037631989E0,1.272422433E0
2.499925594E1,2.611662149E0,8.157963753E0,1.468967199E0
2.501925594E1,2.253930092E0,8.152802467E0,7.867155075E-1
2.503925594E1,1.803054094E0,9.554100990E0,9.859226346E-1
2.505925594E1,1.859040141E0,1.022966671E1,9.551906586E-1
2.507925594E1,1.666479230E0,1.101331806E1,9.017616510E-1
2.509925594E1,2.605485201E0,9.278574944E0,1.337918162E0
2.511925594E1,1.521754563E-1,9.224398613E0,8.885552287E-1
2.513925594E1,1.482345939E0,8.155398369E0,1.053975463E0
2.515925594E1,1.707525373E0,8.167167664E0,6.707690954E-1
2.517925594E1,1.448903799E0,8.679459572E0,1.346585155E0
2.519925594E1,1.853370667E0,1.006213188E1,8.081579804E-1
2.521925594E1,1.481637239E0,1.213961887E1,1.022333622E0
2.523925594E1,3.488638997E-1,1.196867085E1,9.808086157E-1
2.525925594E1,-4.165240526E-1,1.084068584E1,9.135985970E-1
2.527925594E1,2.782062255E-2,1.016663265E1,8.925104737E-1
2.529925594E1,3.969107270E-1,9.855932236E0,8.629660010E-1
2.531925594E1,6.687005162E-1,9.907705307E0,8.436687589E-1
2.533925594E1,8.178400993E-1,9.668025017E0,8.723512888E-1
2.535925594E1,8.146606088E-1,9.610918999E0,1.007547021E0
2.537925594E1,9.223326445E-1,9.618953705E0,9.216144085E-1
2.539925594E1,3.491799235E-1,8.511339188E0,8.751381636E-1
2.541925594E1,8.403072953E-1,1.028047276E1,9.082930684E-1
2.543925594E1,8.717671037E-1,9.823888779E0,9.590788484E-1
2.545925594E1,7.992610931E-1,9.560860634E0,1.018512487E0
2.547925594E1,8.873006701E-1,9.736978531E0,8.758563995E-1
2.549925594E1,1.025752544E0,9.567575455E0,1.111848116E0
2.551925594E1,1.153401852E0,9.344779968E0,1.156792045E0
2.553925594E1,1.153430581E0,9.363187790E0,1.079200745E0
2.555925594E1,1.363564849E0,9.529736519E0,1.167996883E0
2.557925594E1,1.049493432E0,9.975479126E0,1.128760695E0
2.559925594E1,7.581861615E-1,9.732162476E0,1.022362351E0
2.561925594E1,8.722651005E-1,9.601859093E0,8.431037068E-1
2.563925594E1,7.329417467E-1,9.474795341E0,1.151773810E0
2.565925594E1,6.274436116E-1,9.270300865E0,9.144509435E-1
2.567925594E1,7.228094339E-1,9.499646187E0,9.728885889E-1
2.569925594E1,6.440785527E-1,9.556311607E0,5.477454662E-1
2.571925594E1,4.962317944E-1,9.782134056E0,1.333397865E0
2.573925594E1,5.012979507E-1,9.739575386E0,9.939001203E-1
2.575925594E1,7.156938910E-1,9.806611061E0,1.010506272E0
2.577925594E1,7.380461693E-1,9.796593666E0,1.171157241E0
2.579925594E1,9.368223548E-1,9.902580261E0,9.256557822E-1
2.581925594E1,1.110526443E0,9.749745369E0,8.258846402E-1
2.583925594E1,1.282554626E0,9.473492622E0,8.195735216E-1
2.585925594E1,5.989526510E-1,9.405160904E0,6.506386399E-1
2.587925594E1,1.324539423E0,9.664004326E0,8.178592920E-1
2.589925594E1,8.806927204E-1,9.754513741E0,6.106171608E-1
2.591925594E1,6.941748261E-1,9.428127289E0,7.729249001E-1
2.593925594E1,6.493362188E-1,9.136178017E0,5.984067321E-1
2.595925594E1,4.215710163E-1,9.188083649E0,4.159111381E-1
2.597925594E1,3.013533652E-1,9.577572823E0,6.445956826E-1
2.599925594E1,2.966319919E-1,9.708565712E0,6.676374674E-1
2.601925594E1,4.003392458E-1,9.582351685E0,4.329578280E-1
2.603925594E1,4.178935289E-1,9.597990036E0,3.567934930E-1
2.605925594E1,3.896323740E-1,9.450019836E0,5.021119714E-1
2.607925594E1,2.261275500E-1,9.535138130E0,6.996240020E-1
2.609925594E1,4.106534645E-2,9.712405205E0,7.590672374E-1
2.611925594E1,2.273533866E-2,9.366145134E0,7.870123982E-1
2.613925594E1,2.027601451E-1,8.881464005E0,1.160498261E0
2.615925594E1,1.394737363E0,8.794994354E0,9.587149620E-1
2.617925594E1,1.614084482E0,9.261279106E0,7.455447912E-1
2.619925594E1,1.466668725E0,9.481115341E0,4.728643894E-1
2.621925594E1,1.362329483E0,9.560938835E0,5.659701228E-1
2.623925594E1,1.231404901E0,9.306912422E0,8.610793948E-1
2.625925594E1,1.037053227E0,9.309498787E0,8.535137177E-1
2.627925594E1,1.319913745E0,9.582180023E0,6.048902273E-1
2.629925594E1,1.636408091E0,1.003536320E1,4.856781662E-1
2.631925594E1,1.220209599E0,9.902130127E0,7.676672339E-1
2.633925594E1,8.136646152E-1,9.752454758E0,5.392603874E-1
2.635925594E1,3.820283711E-1,9.628301620E0,3.659106195E-1
2.637925594E1,3.129796088E-1,9.808890343E0,4.515942931E-1
2.639925594E1,4.902175665E-1,1.020785046E1,9.716819525E-1
2.641925594E1,8.646898270E-1,1.006190014E1,1.070639014E0
2.643925594E1,1.337343574E0,1.028089333E1,6.826635003E-1
2.645925594E1,1.049685001E0,1.037379742E1,6.897311807E-1
2.647925594E1,4.519869685E-1,1.024480820E1,9.394463897E-1
2.649925594E1,1.137533039E-1,1.034663963E1,8.586851954E-1
2.651925594E1,5.500726104E-1,9.920364380E0,1.311419129E0
2.653925594E1,6.116035581E-1,9.844449043E0,1.427039981E0
2.655925594E1,1.402619123E0,9.631471634E0,9.906535745E-1
2.657925594E1,1.300769687E0,1.001444721E1,5.791860819E-1
2.659925594E1,1.210431695E0,9.973688126E0,3.462015390E-1
2.661925594E1,6.910240650E-1,9.461818695E0,7.058202028E-1
2.663925594E1,4.618223310E-1,9.147938728E0,7.865431309E-1
2.665925594E1,7.447499037E-1,9.518148422E0,1.016271591E0
2.667925594E1,9.949439764E-1,1.021214294E1,1.119902134E0
2.669925594E1,1.213007927E0,1.036012173E1,6.519411206E-1
2.671925594E1,1.257032514E0,9.860356331E0,1.714631468E-1
2.673925594E1,1.118657231E0,9.617900848E0,3.499365151E-1
2.675925594E1,9.606015682E-1,1.010939217E1,5.096009970E-1
2.677925594E1,8.444540501E-1,1.025964260E1,4.753735065E-1
2.679925594E1,8.004294634E-1,9.659319878E0,1.681304127E-1
2.681925594E1,5.322214365E-1,9.243092537E0,5.725014955E-2
2.683925594E1,3.414323032E-1,9.449559212E0,1.875904799E-1
2.685925594E1,3.829094470E-1,1.002686882E1,3.544854820E-1
2.687925594E1,3.896611035E-1,1.048380661E1,4.896429479E-1
2.689925594E1,4.632779956E-1,1.020086002E1,4.012298882E-1
2.691925594E1,5.285152197E-1,1.000912285E1,3.064769506E-1
2.693925594E1,7.224455476E-1,9.936396599E0,6.816771030E-1
2.695925594E1,8.156278729E-1,9.895054817E0,8.941193819E-1
2.697925594E1,8.152735233E-1,1.019530487E1,7.753286958E-1
2.699925594E1,7.478815317E-1,1.041380119E1,8.099775314E-1
2.701925594E1,7.762863636E-1,1.013794994E1,8.382770419E-1
2.703925594E1,7.834210992E-1,9.811370850E0,6.198683977E-1
2.705925594E1,4.778730571E-1,9.343524933E0,1.336510420E0
2.707925594E1,6.291961670E-1,9.696382523E0,1.444048285E0
2.709925594E1,9.210876822E-1,1.002554703E1,3.932715654E-1
2.711925594E1,1.120074511E0,9.759493828E0,3.635547161E-1
2.713925594E1,1.269118428E0,9.439332962E0,4.084029198E-1
2.715925594E1,1.914470673E0,9.556255341E0,2.824008763E-1
2.717925594E1,2.108046532E0,9.940609932E0,4.879287183E-1
2.719925594E1,1.763520956E0,1.004468155E1,4.121761620E-1
2.721925594E1,1.412866235E0,1.003894520E1,4.917498529E-1
2.723925594E1,1.220056415E0,1.027700615E1,2.050777376E-1
2.725925594E1,1.265460014E0,9.862339020E0,1.945815533E-1
2.727925594E1,1.147579193E0,9.646257401E0,3.143969774E-1
2.729925594E1,8.060702085E-1,9.897590637E0,3.495534360E-1
2.731925594E1,6.837648153E-1,9.973335266E0,1.891419291E-1
2.733925594E1,9.502490163E-1,1.007916832E1,5.425931215E-1
2.735925594E1,1.345790267E0,9.490164757E0,6.084911227E-1
2.737925594E1,1.411065817E0,8.693644524E0,5.756714344E-1
2.739925594E1,1.287027001E0,9.170223236E0,4.886565506E-1
2.741925594E1,1.611709476E0,9.464881897E0,1.380879760E0
2.743925594E1,1.873424411E0,9.838685036E0,4.914242327E-1
2.745925594E1,1.313018441E0,9.949152946E0,-1.195051312E0
2.747925594E1,1.125370488E-1,1.001913071E1,-1.995116949E0
2.749925594E1,-3.462589979E-1,1.012603664E1,-3.239373922E0
2.751925594E1,-2.982504964E-1,1.062296677E1,-3.070055962E0
2.753925594E1,-3.221446276E-1,1.030127430E1,-1.386357665E0
2.755925594E1,-1.188539147E0,8.242805481E0,1.490170240E0
2.757925594E1,-2.858130932E0,1.078927803E1,3.948737621E0
2.759925594E1,-4.468145370E0,1.177402306E1,3.419963837E0
2.761925594E1,-5.363222122E0,1.081338310E1,1.708511829E0
2.763925594E1,-6.149123669E0,1.030658817E1,-2.563787699E0
2.765925594E1,-4.294872284E0,9.506484032E0,-2.965467691E0
2.767925594E1,-1.628784895E0,9.810317993E0,1.582471430E-1
2.769925594E1,-1.502677560E0,1.039494324E1,3.349267721E0
2.771925594E1,-2.330621243E0,9.816161156E0,3.998852968E0
2.773925594E1,-2.181021929E0,8.937890053E0,2.467598200E0
2.775925594E1,-1.585631847E0,7.970680237E0,2.682367563E-1
2.777925594E1,-1.176280856E0,7.569478989E0,-2.877064049E-1
2.779925594E1,-6.326246858E-1,6.803009033E0,8.113183379E-1
2.781925594E1,-7.572380453E-2,5.288685799E0,1.855075240E0
2.783925594E1,1.549431533E-1,4.727447033E0,2.847778320E0
2.785925594E1,-2.628450394E-1,4.718607426E0,3.303787470E0
2.787925594E1,-1.155221462E0,5.580405235E0,3.212511063E0
2.789925594E1,-1.508969545E0,6.825945377E0,3.242419243E0
2.791925594E1,-1.588571906E0,8.450410843E0,3.548082352E0
2.793925594E1,-1.777091384E0,1.061911774E1,2.785969496E0
2.795925594E1,-2.842855930E0,1.383544064E1,2.945021152E0
2.797925594E1,-4.128675938E0,1.569240189E1,6.243896008E0
2.799925594E1,-1.614113212E0,1.298349667E1,7.830839634E0
2.801925594E1,1.040299773E0,1.055545235E1,6.428345203E0
2.803925594E1,1.572808504E0,1.245848751E1,3.886402130E0
2.805925594E1,-9.485251904E-1,1.411654949E1,1.244984800E-3
2.807925594E1,-3.982486248E0,1.194669342E1,-6.232805729E0
2.809925594E1,-3.625740528E0,5.950242043E0,-4.159992218E0
2.811925594E1,-2.315451622E0,5.375231743E0,-1.434481144E0
2.813925594E1,-1.237179756E0,6.749772549E0,-3.070707321E-1
2.815925594E1,-8.300888538E-1,9.764884949E0,7.335259318E-1
2.817925594E1,-6.039996147E-1,1.222781086E1,7.114609480E-1
2.819925594E1,-1.752124667E0,1.263182640E1,5.564986467E-1
2.821925594E1,-3.301623106E0,1.082350540E1,1.557284445E-1
2.823925594E1,-5.192458153E0,8.348859787E0,-4.792750835E0
2.825925594E1,-3.903391361E0,8.493257523E0,5.969893932E-1
2.827925594E1,-1.077879190E0,8.258971214E0,1.671870947E0
2.829925594E1,-2.146928459E-1,7.011352539E0,7.303081155E-1
2.831925594E1,-1.080876708E0,6.892734051E0,-3.906666636E-1
2.833925594E1,-8.365340233E-1,7.652203560E0,4.915679097E-1
2.835925594E1,-6.145724058E-1,8.104066849E0,9.099785686E-1
2.837925594E1,-6.844351888E-1,7.547701359E0,1.290589571E0
2.839925594E1,-1.195903659E0,7.288917065E0,1.463623285E0
2.841925594E1,-2.658665180E0,8.514815331E0,1.993096232E0
2.843925594E1,-3.079632759E0,9.983726501E0,2.032696247E0
2.845925594E1,-1.394766092E0,1.224957943E1,1.770004511E0
2.847925594E1,2.511804700E-1,1.272889709E1,6.961859465E-1
2.849925594E1,1.533055186E0,1.088485432E1,-2.937082052E0
2.851925594E1,2.024106026E0,1.026306152E1,-4.566594601E0
2.853925594E1,9.665774703E-1,1.034740448E1,-3.840280294E0
2.855925594E1,-1.874477863E0,9.309527397E0,-2.001830339E0
2.857925594E1,-3.851284027E0,1.233531952E1,4.746744037E-1
2.859925594E1,-4.966081619E0,1.616567802E1,1.624360442E0
2.861925594E1,-5.585921288E0,1.624798203E1,3.306401968E0
2.863925594E1,-7.512449265E0,1.243068600E1,-3.444509029E0
2.865925594E1,-1.939588737E1,1.296113586E1,5.422387719E-1
2.867925594E1,-8.533413410E-1,7.087727547E0,-1.886956453E0
2.869925594E1,-2.805812657E-1,7.940513134E0,-1.121252477E-1
2.871925594E1,-2.879649997E-1,7.910758018E0,2.189966679E0
2.873925594E1,5.035484955E-2,7.090207577E0,2.250472784E0
2.875925594E1,1.912009418E-1,6.252620220E0,2.438484669E0
2.877925594E1,-1.328513741E0,5.583862305E0,2.193682432E0
2.879925594E1,-2.612409115E0,6.695518970E0,2.154331446E0
2.881925594E1,-2.650122643E0,5.433401108E0,3.037102222E0
2.883925594E1,-1.652047038E0,4.127249241E0,3.277460814E0
2.885925594E1,-8.071907163E-1,3.758044243E0,3.228542566E0
2.887925594E1,-3.939227760E-1,4.346452713E0,2.863857746E0
2.889925594E1,-7.428920269E-1,7.413856030E0,2.110095978E0
2.891925594E1,-2.109588385E0,9.593336105E0,3.232162476E0
2.893925594E1,-3.202618122E0,1.264894009E1,3.135408163E0
2.895925594E1,-5.228035927E0,1.496394157E1,1.916146636E0
2.897925594E1,-6.699991226E0,1.391069603E1,8.616599083E0
2.899925594E1,-6.745854378E0,1.193323708E1,1.040031624E1
2.901925594E1,-6.052359581E0,1.467568111E1,1.467971206E0
2.903925594E1,-6.254229069E0,1.257185841E1,-7.900731087E0
2.905925594E1,-3.518403769E0,1.108853436E1,-9.159536362E0
2.907925594E1,-5.450735092E-1,5.210366726E0,-2.142963648E0
2.909925594E1,3.373430073E-1,5.408281326E0,2.127612114E0
2.911925594E1,3.499652445E-1,8.333497047E0,2.483792543E0
2.913925594E1,7.683184743E-1,1.137513924E1,1.237926722E0
2.915925594E1,1.431540996E-1,1.254159451E1,-4.177115560E-1
2.917925594E1,1.431540996E-1,1.254159451E1,-4.177115560E-1
2.919925594E1,-4.152311802E0,9.999517441E0,-3.554517984E0
2.921925594E1,-3.601434708E0,8.655737877E0,-8.288821578E-1
2.923925594E1,-2.229413509E0,8.083897591E0,2.246919870E0
2.925925594E1,-8.714032173E-1,6.021033764E0,6.389645487E-2
2.927925594E1,-1.746282816E0,5.588545322E0,-1.250031829E0
2.929925594E1,-1.856071234E0,6.644217014E0,1.119385004E0
2.931925594E1,-1.391327977E0,8.342127800E0,2.078722477E0
2.933925594E1,-8.191713095E-1,8.442970276E0,9.921571240E-3
2.935925594E1,-1.498578638E-1,7.932727337E0,-3.191949427E-1
2.937925594E1,-5.609230995E-1,7.886433125E0,2.008639425E-1
2.939925594E1,-1.381387234E0,8.970615387E0,1.375430465E0
2.941925594E1,-1.204992056E0,1.238243675E1,1.163313866E0
2.943925594E1,-6.896353960E-1,1.343294621E1,1.427595377E0
2.945925594E1,2.571372502E-2,1.229694462E1,6.445669532E-1
2.947925594E1,1.486674666E0,1.228208160E1,6.638642401E-2
2.949925594E1,1.828710318E0,1.193198299E1,-1.329643846E0
2.951925594E1,-1.239688873E0,1.101909256E1,-3.852203369E0
2.953925594E1,-4.158632278E0,9.443449020E0,-4.157722473E0
2.955925594E1,-3.796236515E0,8.901823044E0,-2.507600546E0
2.957925594E1,-4.935895443E0,1.077556419E1,-8.816791177E-1
2.959925594E1,-5.797587872E0,1.305774593E1,8.783367872E-1
2.961925594E1,-1.974933052E1,1.601595497E1,1.511335015E0
2.963925594E1,-4.195503235E0,8.942668915E0,-6.112205386E-1
2.965925594E1,-2.078741550E0,9.553266525E0,-3.052913427E0
2.967925594E1,-8.695452809E-1,1.026834774E1,-2.150069714E0
2.969925594E1,-8.441092968E-1,1.074982262E1,-6.178284883E-1
2.971925594E1,2.606710792E-1,8.224647522E0,3.450427651E-1
2.973925594E1,1.055775881E0,5.466000557E0,1.286777973E0
2.975925594E1,1.108362079E0,4.451452732E0,1.780663490E0
2.977925594E1,-1.418832541E0,5.873972416E0,2.666929960E0
2.979925594E1,-2.387909651E0,6.785521507E0,3.986278534E0
2.981925594E1,-2.657669067E0,6.579697132E0,4.029355049E0
2.983925594E1,-1.475335717E0,5.757864475E0,3.578057766E0
2.985925594E1,-9.413042665E-2,5.605391026E0,2.507619619E0
2.987925594E1,-9.088389575E-2,5.674478054E0,2.567436457E0
2.989925594E1,-6.059341431E-1,7.558436871E0,3.960172176E0
2.991925594E1,-1.643073559E0,1.032187271E1,4.810525417E0
2.993925594E1,-3.250933170E0,1.228951359E1,4.122843742E0
2.995925594E1,-4.577244282E0,1.423632526E1,7.413022518E-1
2.997925594E1,-5.950271130E0,1.340483952E1,4.750325680E0
2.999925594E1,-7.841996670E0,1.078919220E1,1.040062332E1
3.001925594E1,-7.067587376E0,1.231493187E1,4.014606953E0
3.003925594E1,-5.682235241E0,1.309358311E1,-5.651196957E0
3.005925594E1,-2.830319881E0,1.024847698E1,-9.494964600E0
3.007925594E1,-1.461794138E0,9.713112831E0,-2.591253996E0
3.009925594E1,1.106944799E0,8.159630775E0,3.868818998E0
3.011925594E1,1.483859062E0,8.779623032E0,1.934332967E0
3.013925594E1,1.503137231E0,1.008922386E1,-2.025216818E0
3.015925594E1,1.571008086E0,9.477764130E0,-1.578420520E0
3.017925594E1,-1.386089444E0,9.184041977E0,8.190084696E-1
3.019925594E1,-2.846217394E0,8.833330154E0,-7.075344771E-2
3.021925594E1,-4.328716278E0,7.802961826E0,-1.982734084E0
3.023925594E1,-4.539847851E0,8.278085709E0,3.973742485E0
3.025925594E1,-1.485477567E0,7.642138481E0,1.385189295E0
3.027925594E1,3.341347873E-1,6.301913261E0,-1.503261685E0
3.029925594E1,-9.054487348E-1,7.390258789E0,-3.818176985E-1
3.031925594E1,-1.292045236E0,8.219408989E0,1.155709863E0
3.033925594E1,-1.430573821E0,9.190161705E0,7.004954815E-1
3.035925594E1,-1.188481688E0,9.925201416E0,1.781918049E0
3.037925594E1,-5.961657763E-1,1.025295925E1,2.287717104E0
3.039925594E1,-8.950004578E-1,1.077318096E1,6.046795845E-1
3.041925594E1,-3.990272284E-1,1.092307663E1,-5.349508524E-1
3.043925594E1,1.006235033E-1,1.159344196E1,9.332501888E-1
3.045925594E1,-6.813035607E-1,1.236495972E1,1.324845791E0
3.047925594E1,-5.352476835E-1,1.255429459E1,-4.525711536E-1
3.049925594E1,1.049589276E0,1.334736824E1,-2.786477089E0
3.051925594E1,5.713905692E-1,1.317494774E1,-4.548293591E0
3.053925594E1,-1.457436681E0,1.065010738E1,-4.864155769E0
3.055925594E1,-3.296116590E0,8.292116165E0,-3.751235008E0
3.057925594E1,-3.359352112E0,8.865461349E0,-7.081952691E-1
3.059925594E1,-3.915323973E0,1.112082672E1,1.757152438E0
3.061925594E1,-1.818579102E1,1.603776169E1,1.635287523E0
3.063925594E1,-5.960068226E0,8.885983467E0,-1.839886427E0
3.065925594E1,-2.001648426E0,8.139635086E0,-3.840289831E0
3.067925594E1,-6.405542493E-1,8.121036530E0,-8.331055641E-1
3.069925594E1,-7.219188213E-1,9.793759346E0,3.563912809E-1
3.071925594E1,2.232832462E-1,8.037018776E0,1.833326340E0
3.073925594E1,5.185074806E-1,6.914147854E0,2.132256746E0
3.075925594E1,-7.538478971E-1,7.113077164E0,2.028003693E0
3.077925594E1,-1.871193051E0,7.441264629E0,1.835289598E0
3.079925594E1,-2.573872089E0,6.711655617E0,1.525202155E0
3.081925594E1,-3.689110279E0,5.802050591E0,2.440467119E0
3.083925594E1,-3.990578651E0,5.022891521E0,2.816835642E0
3.085925594E1,-1.391136527E0,5.381159782E0,1.941343188E0
3.087925594E1,-1.089754343E0,5.981194496E0,2.404803038E0
3.089925594E1,-1.106437206E0,6.678223133E0,3.399814129E0
3.091925594E1,-1.664161682E0,8.760824203E0,4.735194683E0
3.093925594E1,-3.313603640E0,1.187129593E1,5.312618256E0
3.095925594E1,-4.304573536E0,1.467738438E1,3.799368143E0
3.097925594E1,-5.487021446E0,1.402626801E1,2.956283569E0
3.099925594E1,-5.955059528E0,1.101404572E1,5.705296040E0
3.101925594E1,-7.932075977E0,1.278860950E1,7.667373180E0
3.103925594E1,-4.907222748E0,1.538974571E1,1.639348149E0
3.105925594E1,-3.587289810E0,1.298181152E1,-8.747598648E0
3.107925594E1,-1.627894282E0,7.789247513E0,-6.493534565E0
3.109925594E1,2.210039645E-1,3.147953749E0,-2.540774584E0
3.111925594E1,8.427398205E-1,6.008766174E0,3.092676401E0
3.113925594E1,8.457565308E-1,9.261663437E0,1.111857653E0
3.115925594E1,3.088663816E0,1.040174294E1,2.056044638E-1
3.117925594E1,2.308699846E0,1.014451981E1,-9.069427252E-1
3.119925594E1,-3.591292858E0,1.088136959E1,-1.917698026E0
3.121925594E1,-5.343944073E0,8.476201057E0,-7.260655880E0
3.123925594E1,-5.500792980E0,8.458857536E0,2.621526241E0
3.125925594E1,-4.872066021E0,1.003469372E1,5.774478912E0
3.127925594E1,-2.132275999E-1,9.395680428E0,2.085694313E0
3.129925594E1,7.643249035E-1,9.109955788E0,-1.596262097E0
3.131925594E1,-6.675225496E-1,7.860278606E0,-4.892886281E-1
3.133925594E1,-1.566190958E0,7.690464020E0,4.868178070E-1
3.135925594E1,-1.863033652E0,8.080267906E0,7.992610931E-1
3.137925594E1,-1.692872882E0,8.688788414E0,1.609755754E0
3.139925594E1,-1.834092498E0,9.166067123E0,1.539739728E0
3.141925594E1,-2.228589773E0,8.771415710E0,6.171389818E-1
3.143925594E1,-1.554545522E0,8.126458168E0,1.552831292E0
3.145925594E1,4.731133878E-1,8.928294182E0,6.547853947E-1
3.147925594E1,8.445498347E-1,1.111924648E1,9.217676520E-2
3.149925594E1,1.184823394E0,1.224924278E1,1.083424091E0
3.151925594E1,1.558424115E0,1.281154633E1,1.778537393E0
3.153925594E1,1.488159060E0,1.372774887E1,-1.463000774E0
3.155925594E1,9.608410001E-1,1.257886696E1,-4.025122166E0
3.157925594E1,-1.155796051E0,1.067671299E1,-4.626890182E0
3.159925594E1,-3.071540356E0,8.988196373E0,-4.673969746E0
3.161925594E1,-3.647652388E0,9.153329849E0,-2.949483871E0
3.163925594E1,-4.855450630E0,1.322807884E1,7.877689600E-1
3.165925594E1,-5.362006187E0,1.499775791E1,2.158861160E0
3.167925594E1,-1.944753456E1,1.662332535E1,9.389005303E-1
3.169925594E1,-4.003957272E0,7.784459114E0,-3.928731680E0
3.171925594E1,-1.958964467E0,8.689850807E0,-3.440937042E0
3.173925594E1,-7.667286992E-1,7.895281792E0,-7.851927876E-1
3.175925594E1,-5.302773714E-1,8.150850296E0,-8.438220024E-1
3.177925594E1,6.265050769E-1,5.736784935E0,-1.523669958E-1
3.179925594E1,8.791700006E-1,4.100012779E0,-1.338655591E0
3.181925594E1,3.791936636E-1,5.465799332E0,2.513241172E-1
3.183925594E1,3.792127967E-1,6.798556805E0,3.870016098E0
3.185925594E1,-1.310518861E0,7.121332169E0,3.325354576E0
3.187925594E1,-2.513250828E0,6.092103481E0,2.651721954E0
3.189925594E1,-3.477156401E0,5.496263504E0,2.487862825E0
3.191925594E1,-3.648859024E0,5.230650425E0,2.152674437E0
3.193925594E1,-3.395198107E0,5.942034721E0,1.454381704E0
3.195925594E1,-2.672245026E0,7.614452839E0,2.956053734E0
3.197925594E1,-3.346988440E0,9.492549896E0,5.384129524E0
3.199925594E1,-4.233800888E0,1.129732800E1,3.254160404E0
3.201925594E1,-5.022508144E0,1.312786674E1,2.047559500E0
3.203925594E1,-5.520091534E0,1.061208820E1,5.143252373E0
3.205925594E1,-5.932438850E0,9.233929634E0,6.424820900E0
3.207925594E1,-5.837609291E0,1.190155792E1,5.404412270E0
3.209925594E1,-6.666864872E0,1.565399075E1,1.723461270E0
3.211925594E1,-4.589339733E0,1.562526989E1,-1.326690292E1
3.213925594E1,-2.499661446E0,1.558226013E1,-7.487961292E0
3.215925594E1,1.804701328E0,9.219803810E0,3.652833462E0
3.217925594E1,1.890289187E0,7.500324726E0,1.809480071E0
3.219925594E1,1.063159585E0,8.517075539E0,-1.792165279E0
3.221925594E1,-1.515433788E-1,8.757875443E0,-4.288493991E-1
3.223925594E1,-2.201324701E0,1.021855736E1,6.030610800E-1
3.225925594E1,-3.925370216E0,1.170356655E1,-8.169015646E-1
3.227925594E1,-5.323919296E0,1.097102737E1,-4.367990971E0
3.229925594E1,-3.947789431E0,8.110972404E0,1.426608920E0
3.231925594E1,-2.543274164E0,5.351864338E0,3.188032627E0
3.233925594E1,-1.804021358E0,2.622416973E0,1.550006121E-1
3.235925594E1,-2.571841717E0,4.285343170E0,-4.337814450E-1
3.237925594E1,-2.393990993E0,6.179721832E0,-6.876338720E-1
3.239925594E1,-1.959931731E0,7.560840607E0,5.640739202E-1
3.241925594E1,-2.083424568E0,9.126227379E0,2.261016846E0
3.243925594E1,-2.750161886E0,1.020407772E1,1.989591122E0
3.245925594E1,-2.751502752E0,1.036940193E1,3.383294046E-1
3.247925594E1,-8.508322239E-1,1.144187069E1,5.099649429E-1
3.249925594E1,1.474186540E0,1.252495956E1,1.863253832E0
3.251925594E1,3.647470474E0,1.292274189E1,5.101181865E-1
3.253925594E1,3.912910700E0,1.284616566E1,-8.887180686E-1
3.255925594E1,2.156304121E0,1.378913689E1,-2.177162409E0
3.257925594E1,-1.134956956E0,1.369038105E1,-4.046880722E0
3.259925594E1,-4.266630173E0,1.075181389E1,-5.378641129E0
3.261925594E1,-5.833730698E0,9.158587456E0,-4.358778000E0
3.263925594E1,-1.553360081E1,1.133571148E1,4.456566870E-1
3.265925594E1,-1.147054482E1,1.213839149E1,-2.491693497E-1
3.267925594E1,-8.201835632E0,1.281676483E1,-8.475186229E-1
3.269925594E1,-3.740489960E0,1.000770569E1,2.905689240E0
3.271925594E1,-6.137487888E-1,9.272762299E0,2.069289207E0
3.273925594E1,3.628651798E-2,1.069213104E1,-2.686370850E0
3.275925594E1,6.019405723E-1,1.055482864E1,-1.786955476E0
3.277925594E1,1.034917593E0,8.087241173E0,-2.304457426E0
3.279925594E1,2.023071527E0,4.959013939E0,-9.745262265E-1
3.281925594E1,1.974593878E0,3.602602959E0,1.918387532E0
3.283925594E1,-6.991068833E-3,4.290859222E0,3.105633736E0
3.285925594E1,-1.204656959E0,6.193637848E0,3.974853516E0
3.287925594E1,-2.099044323E0,6.984288216E0,3.909510851E0
3.289925594E1,-1.724572182E0,5.748066425E0,2.783173084E0
3.291925594E1,-5.187277198E-1,4.807595253E0,1.941908240E0
3.293925594E1,-5.209878683E-1,5.392431736E0,2.478994608E0
3.295925594E1,-1.217202544E0,7.970507622E0,4.313594818E0
3.297925594E1,-2.601740599E0,1.109090900E1,4.425250530E0
3.299925594E1,-2.987791300E0,1.269241047E1,2.895987988E0
3.301925594E1,-3.713157654E0,1.412637520E1,-2.901772410E-2
3.303925594E1,-5.217492104E0,1.276945591E1,3.429837465E0
3.305925594E1,-8.139643669E0,1.280967808E1,1.042866421E1
3.307925594E1,-1.187441730E1,1.443898010E1,5.881509304E0
3.309925594E1,-2.786611319E0,1.087620831E1,-8.585826874E0
3.311925594E1,-1.216675758E0,1.129432201E1,-1.140788269E1
3.313925594E1,1.194716215E0,1.133413219E1,-1.940375924E0
3.315925594E1,3.392143250E0,8.262504578E0,5.310789108E0
3.317925594E1,2.786572933E0,9.596611023E0,2.156371117E0
3.319925594E1,2.513346672E0,1.011882496E1,-1.576150775E0
3.321925594E1,-1.516247869E0,9.798030853E0,4.216189086E-1
3.323925594E1,-3.049417973E0,8.783913612E0,-3.009798825E-1
3.325925594E1,-4.803639889E0,9.151357651E0,-6.706790924E0
3.327925594E1,-4.872210026E0,8.734392166E0,-7.672745585E-1
3.329925594E1,-9.684545517E0,8.702731133E0,5.801044941E0
3.331925594E1,-8.072289824E-1,5.040359497E0,2.220507145E0
3.333925594E1,1.063983236E-2,5.065795422E0,-1.407886267E0
3.335925594E1,-4.099639356E-1,6.450036526E0,1.779179126E-1
3.337925594E1,-1.059530020E0,7.674536705E0,-3.831776083E-1
3.339925594E1,-9.604579210E-1,8.473711967E0,-3.817985356E-1
3.341925594E1,-4.997560680E-1,8.937401772E0,2.798381090E0
3.343925594E1,-3.525413871E-1,8.776349068E0,1.275946617E0
3.345925594E1,-1.487986684E0,9.074426651E0,7.444530725E-1
3.347925594E1,-1.883891940E0,1.026301289E1,1.667312384E0
3.349925594E1,-1.492947459E0,1.201727486E1,1.365183353E0
3.351925594E1,-1.568297744E-1,1.370659351E1,4.566221237E-1
3.353925594E1,1.530277848E0,1.310960484E1,1.335361123E0
3.355925594E1,2.416055918E0,1.287961674E1,1.123072058E-1
3.357925594E1,7.433900237E-1,1.381011868E1,-3.268065929E0
3.359925594E1,-2.023483515E0,1.203320026E1,-6.247180462E0
3.361925594E1,-5.145244598E0,9.882565498E0,-6.316909313E0
3.363925594E1,-1.468500900E1,1.299397469E1,-8.958240747E-1
3.365925594E1,-1.157847500E1,1.208947468E1,3.943537474E-1
3.367925594E1,-8.026273727E0,1.156217575E1,-2.271905839E-1
3.369925594E1,-1.965275645E0,8.385059357E0,2.377461433E0
3.371925594E1,-3.252953887E-1,8.549655914E0,1.664477706E0
3.373925594E1,1.893794298E0,1.060076809E1,-3.980532646E0
3.375925594E1,3.730281115E0,1.432406807E1,-9.306597710E0
3.377925594E1,3.063074589E0,1.089151955E1,-2.602478027E0
3.379925594E1,2.841524601E0,6.430202961E0,5.176331043E0
3.381925594E1,7.712968588E-1,4.303816795E0,6.051804066E0
3.383925594E1,-1.437622309E0,4.389117241E0,3.478707790E0
3.385925594E1,-2.337478161E0,5.910852909E0,2.565434933E0
3.387925594E1,-2.890040636E0,6.186272144E0,9.345909357E-1
3.389925594E1,-1.385045648E0,5.201891422E0,1.470748425E0
3.391925594E1,-9.460831285E-1,5.055979252E0,2.315384388E0
3.393925594E1,-5.469409823E-1,4.790500641E0,3.050710917E0
3.395925594E1,-5.658072829E-1,6.169838428E0,3.609029055E0
3.397925594E1,-6.997293830E-1,6.995196342E0,4.246700764E0
3.399925594E1,-1.399544954E0,9.728330612E0,3.341328621E0
3.401925594E1,-2.574743509E0,1.370630646E1,5.463759303E-1
3.403925594E1,-4.475921631E0,1.637473106E1,7.762671709E-1
3.405925594E1,-5.962615490E0,1.370646858E1,1.045701981E1
3.407925594E1,-4.649491787E0,1.248435402E1,7.973926544E0
3.409925594E1,-3.380727530E0,1.436780453E1,2.347074032E0
3.411925594E1,-3.645315647E0,1.467673397E1,-5.847109795E0
3.413925594E1,-4.256019115E0,1.336396503E1,-1.319393826E1
3.415925594E1,-1.838268042E-1,8.077864647E0,-2.885233164E0
3.417925594E1,1.969546795E0,6.190753937E0,5.175507069E0
3.419925594E1,2.035368204E0,8.162092209E0,1.441347718E0
3.421925594E1,5.043720603E-1,9.571347237E0,7.495766133E-2
3.423925594E1,-2.018877029E0,1.003767204E1,2.080752701E-1
3.425925594E1,-3.527750731E0,9.758105278E0,-6.954868436E-1
3.427925594E1,-6.167903900E0,1.059732151E1,-7.944190979E0
3.429925594E1,-4.772227764E0,8.129666328E0,-5.095952988E0
3.431925594E1,-3.357159138E0,6.873791218E0,2.122402191E0
3.433925594E1,-2.938087702E0,5.761215210E0,3.679581404E0
3.435925594E1,-2.303959370E0,6.332988739E0,3.635786772E0
3.437925594E1,-2.000173569E0,6.653074265E0,2.054435730E0
3.439925594E1,-1.710877299E0,7.855989456E0,-1.113610148E0
3.441925594E1,-1.121635556E0,9.120262146E0,-2.164540291E0
3.443925594E1,-6.114695072E-1,9.239004135E0,4.977736771E-1
3.445925594E1,-1.589271069E0,9.806477547E0,8.929988742E-1
3.447925594E1,-1.845824122E0,1.037980270E1,2.052290440E0
3.449925594E1,-1.793352813E-1,1.109972000E1,1.669955611E0
3.451925594E1,8.397997022E-1,1.195195007E1,2.055814743E0
3.453925594E1,1.954626203E0,1.236955643E1,9.174676538E-1
3.455925594E1,2.863436460E0,1.157327461E1,6.287173182E-2
3.457925594E1,1.970054388E0,1.176137161E1,-7.985619903E-1
3.459925594E1,-5.478220582E-1,1.139985847E1,-3.324234009E0
3.461925594E1,-3.578977108E0,1.006544399E1,-4.836938381E0
3.463925594E1,-4.145521641E0,8.426641464E0,-4.748850822E0
3.465925594E1,-9.838435173E0,9.565419197E0,-3.408864260E0
3.467925594E1,-8.054430962E0,1.112015820E1,1.583860159E0
3.469925594E1,-5.693832874E0,1.539168072E1,-1.455866098E-1
3.471925594E1,-4.128599644E0,1.482830524E1,-7.415321469E-2
3.473925594E1,-3.014204025E0,1.202258873E1,2.204523325E0
3.475925594E1,-1.027744532E0,1.073796558E1,-2.707114220E0
3.477925594E1,-5.982822776E-1,9.727450371E0,-3.559986353E0
3.479925594E1,-1.220372468E-1,8.343812943E0,-9.192872047E-1
3.481925594E1,3.252474964E-1,6.213623524E0,7.506013513E-1
3.483925594E1,9.714329243E-1,4.358050346E0,1.736638904E0
3.485925594E1,-1.326387655E-2,5.020085335E0,4.742721915E-1
3.487925594E1,-7.494138479E-1,5.263700008E0,1.623354912E0
3.489925594E1,-1.841265559E0,5.213096142E0,3.150759697E0
3.491925594E1,-2.029976606E0,4.276819706E0,2.486799717E0
3.493925594E1,-1.578784466E0,3.950298548E0,2.229739189E0
3.495925594E1,-1.143633485E0,4.803122520E0,2.626448631E0
3.497925594E1,-7.554184794E-1,6.827448845E0,3.867784739E0
3.499925594E1,-8.401253223E-1,1.016057968E1,3.746628523E0
3.501925594E1,-2.044935465E0,1.237823296E1,2.452141285E0
3.503925594E1,-3.692069530E0,1.441427231E1,9.063872695E-1
3.505925594E1,-6.892092228E0,1.393099880E1,-3.559938431E0
3.507925594E1,-1.230097771E1,1.158999634E1,9.560986519E0
3.509925594E1,-6.371698380E0,9.284589767E0,1.216449738E1
3.511925594E1,-2.453041553E0,1.390710354E1,3.377117157E0
3.513925594E1,-2.562083006E0,1.516870403E1,-6.495258331E0
3.515925594E1,-2.067287683E0,1.161569881E1,-1.099391556E1
3.517925594E1,9.483911097E-2,1.010819626E1,-4.927669048E0
3.519925594E1,2.934486628E0,7.256193161E0,3.718635559E0
3.521925594E1,1.925541401E0,7.431170940E0,2.653369188E0
3.523925594E1,3.782072365E-1,8.721894264E0,-4.834084511E-1
3.525925594E1,-1.633314729E0,9.871093750E0,-1.240866780E0
3.527925594E1,-3.257368803E0,1.107897663E1,-8.551417589E-1
3.529925594E1,-4.141145229E0,1.171613216E1,-1.520950079E0
3.531925594E1,-4.909655094E0,1.079761982E1,-2.205366135E0
3.533925594E1,-2.669774294E0,8.986089706E0,2.803504705E0
3.535925594E1,-1.323706150E0,6.589694977E0,3.597479343E0
3.537925594E1,-1.098727822E0,4.568193913E0,9.575465918E-1
3.539925594E1,-2.210997343E0,5.273775101E0,-3.454430580E0
3.541925594E1,-2.939581633E0,6.554490566E0,-2.401546955E0
3.543925594E1,-2.844857454E0,7.825687408E0,-7.375290394E-1
3.545925594E1,-2.255615711E0,9.767930984E0,2.769564629E0
3.547925594E1,-1.636388898E-1,9.173892021E0,4.289508820E0
3.549925594E1,-1.958265424E0,8.943578720E0,9.124493599E-1
3.551925594E1,-2.452830791E0,9.604837418E0,-1.745152712E0
3.553925594E1,-7.874146104E-1,1.119312191E1,1.044542268E-1
3.555925594E1,5.956103206E-1,1.206957340E1,2.533390999E0
3.557925594E1,2.100404263E0,1.286048222E1,6.379972696E-1
3.559925594E1,3.626899481E0,1.316873169E1,-9.231275320E-1
3.561925594E1,2.492316008E0,1.409657097E1,-1.374587774E0
3.563925594E1,5.515666008E-1,1.402232265E1,-3.541445494E0
3.565925594E1,-2.595783710E0,1.178615761E1,-5.244689941E0
3.567925594E1,-4.454354763E0,9.118441582E0,-4.445553303E0
3.569925594E1,-1.109715271E1,1.137246799E1,4.797596931E-1
3.571925594E1,-1.217945671E1,1.162534237E1,8.100541830E-1
3.573925594E1,-8.790523529E0,1.206217003E1,-1.615358233E0
3.575925594E1,-4.216696739E0,8.931492805E0,6.162962317E-1
3.577925594E1,-4.776336551E-1,7.185755730E0,1.185359597E0
3.579925594E1,5.037400126E-2,8.725016594E0,-3.245579720E0
3.581925594E1,1.020274639E0,1.096948433E1,-2.459802628E0
3.583925594E1,1.184085965E0,1.025311089E1,-1.694797873E0
3.585925594E1,8.060318828E-1,8.869463921E0,1.111120224E0
3.587925594E1,2.855995297E-1,7.258318901E0,3.503425598E0
3.589925594E1,-9.882785082E-1,6.372292042E0,2.983749866E0
3.591925594E1,-1.919996500E0,5.510044098E0,2.490036726E0
3.593925594E1,-3.088625431E0,4.589052200E0,2.020093203E0
3.595925594E1,-2.826249599E0,3.757105589E0,1.586378813E0
3.597925594E1,-1.104770780E0,4.667620659E0,1.781697750E0
3.599925594E1,-6.220997572E-1,5.668857574E0,2.557821274E0
3.601925594E1,-6.735942364E-1,6.360569954E0,4.158651352E0
3.603925594E1,-1.551308513E0,8.780869484E0,5.661070347E0
3.605925594E1,-2.815063953E0,1.183098507E1,3.525758743E0
3.607925594E1,-3.650467873E0,1.302782822E1,1.117891073E0
3.609925594E1,-1.458330250E1,1.529917908E1,-6.605602503E-1
3.611925594E1,-8.035161018E0,1.181311512E1,3.369858027E0
3.613925594E1,-4.828874588E0,1.174940109E1,9.976264954E0
3.615925594E1,-2.013447046E0,1.303053761E1,7.456491947E0
3.617925594E1,-4.510752201E0,1.483025932E1,-3.881450891E0
3.619925594E1,-2.945480824E0,1.246054554E1,-1.108159065E1
3.621925594E1,1.958456933E-1,9.415696144E0,-3.371332645E0
3.623925594E1,2.288607836E0,7.196864605E0,2.788105249E0
3.625925594E1,1.593475223E0,7.214418888E0,7.070460320E-1
3.627925594E1,-3.423804045E-1,9.315924644E0,-1.008073807E0
3.629925594E1,-2.053851366E0,1.041776657E1,-8.146031499E-1
3.631925594E1,-5.510025024E0,1.152017117E1,-3.806110024E-1
3.633925594E1,-4.801877975E0,9.924042702E0,-3.221446276E-1
3.635925594E1,-4.245656967E0,8.017348289E0,-4.732848167E0
3.637925594E1,-2.869508028E0,7.429236412E0,1.854855061E0
3.639925594E1,-1.561996222E0,6.647405148E0,2.891429424E0
3.641925594E1,-8.026321530E-1,5.656961918E0,3.329472542E-1
3.643925594E1,-7.278372650E-4,5.310166836E0,-2.470748901E0
3.645925594E1,-1.191019535E0,7.221812248E0,-2.137964487E0
3.647925594E1,-1.414896488E0,9.067014694E0,-1.440734714E-1
3.649925594E1,-1.583620757E-1,1.001906490E1,2.525700808E0
3.651925594E1,4.974001646E-1,9.662384987E0,5.385076523E0
3.653925594E1,-1.350559592E0,9.077625275E0,1.139352679E0
3.655925594E1,-1.621908784E0,9.369699478E0,-7.737197876E-1
3.657925594E1,6.546705216E-2,1.096492577E1,-3.804865107E-2
3.659925594E1,1.224758625E0,1.214999866E1,1.464925766E0
3.661925594E1,1.894953132E0,1.278240299E1,1.561019421E0
3.663925594E1,2.155518770E0,1.277796841E1,-4.632301256E-2
3.665925594E1,9.222177267E-1,1.398668671E1,-1.791935444E0
3.667925594E1,-9.799754620E-1,1.399269104E1,-4.153528214E0
3.669925594E1,-3.325095892E0,1.081336403E1,-5.866167545E0
3.671925594E1,-4.414783478E0,8.155235291E0,-4.635758400E0
3.673925594E1,-1.312392235E1,1.260004234E1,2.877447307E-1
3.675925594E1,-8.604119301E0,1.270593166E1,1.626275778E0
3.677925594E1,-7.007138729E0,1.332704544E1,-6.111151576E-1
3.679925594E1,-3.511632919E0,1.005400944E1,1.784839034E0
3.681925594E1,-8.005156517E-1,8.187298775E0,-5.957156420E-1
3.683925594E1,-3.207751215E-1,8.370933533E0,-4.440430164E0
3.685925594E1,5.915401578E-1,8.780715942E0,-1.704633236E0
3.687925594E1,6.012127399E-1,8.413674355E0,-6.732878089E-1
3.689925594E1,7.039623260E-1,6.808438778E0,7.037420273E-1
3.691925594E1,-3.521679044E-1,6.700747967E0,2.123082161E0
3.693925594E1,-1.193260550E0,7.063258648E0,2.006618738E0
3.695925594E1,-1.969690561E0,6.844332695E0,3.445342302E0
3.697925594E1,-2.791131496E0,6.037036896E0,3.751024485E0
3.699925594E1,-2.544691563E0,4.730358124E0,2.254303694E0
3.701925594E1,-2.005881310E0,4.719986439E0,1.399975896E0
3.703925594E1,-1.963187814E0,5.543601513E0,2.106073856E0
3.705925594E1,-1.805247188E0,6.487060547E0,3.177172661E0
3.707925594E1,-2.114453554E0,9.540146828E0,3.687721729E0
3.709925594E1,-2.832915068E0,1.194889545E1,2.954310656E0
3.711925594E1,-3.345733881E0,1.342990112E1,1.939935327E0
3.713925594E1,-4.785778999E0,1.291196918E1,-5.377376676E-1
3.715925594E1,-7.000434875E0,1.135326672E1,4.554815292E0
3.717925594E1,-5.484933853E0,1.020338821E1,9.065234184E0
3.719925594E1,-3.571535826E0,1.106118393E1,5.156535625E0
3.721925594E1,-4.593716145E0,1.260246468E1,3.409917653E-1
3.723925594E1,-4.299210548E0,1.270200539E1,-6.899044991E0
3.725925594E1,-7.764874697E-1,1.137601089E1,-2.982753754E0
3.727925594E1,1.840949535E0,1.124345779E1,-8.325117826E-1
3.729925594E1,3.784523964E0,8.989002228E0,1.378016233E0
3.731925594E1,2.161025524E0,8.566367149E0,-1.009625196E0
3.733925594E1,7.468376756E-1,9.490519524E0,-2.459649563E0
3.735925594E1,-1.815063357E0,1.087570858E1,5.034718513E-1
3.737925594E1,-3.263756514E0,1.092092991E1,3.106141388E-1
3.739925594E1,-7.250772476E0,1.180589390E1,-2.929956913E0
3.741925594E1,-4.548389435E0,8.552730560E0,7.347325683E-1
3.743925594E1,-3.434807777E0,7.697386742E0,3.947185993E0
3.745925594E1,-1.629043460E0,5.786354542E0,2.932887316E0
3.747925594E1,-1.276482940E0,4.900011539E0,1.533821374E-1
3.749925594E1,-1.289622307E0,5.029394150E0,-3.159455538E0
3.751925594E1,-1.591119289E0,6.815324783E0,-2.814920187E0
3.753925594E1,-1.603224397E0,9.068182945E0,-2.363364249E-1
3.755925594E1,-7.350486517E-1,9.531009674E0,3.045367002E0
3.757925594E1,6.313988566E-2,8.817441940E0,3.707449913E0
3.759925594E1,-1.077543974E0,9.280461311E0,6.158940196E-1
3.761925594E1,-1.670329094E0,9.219131470E0,3.970544040E-2
3.763925594E1,-1.484749794E0,9.869847298E0,8.359403014E-1
3.765925594E1,-8.122472763E-1,1.111795425E1,9.661656618E-1
3.767925594E1,-1.562934816E-1,1.113941574E1,-6.747913361E-1
3.769925594E1,1.474454641E0,1.171172523E1,5.737943649E-1
3.771925594E1,2.078693628E0,1.368444347E1,5.260635614E-1
3.773925594E1,1.124163866E0,1.817253685E1,-1.953247070E0
3.775925594E1,-2.418718189E-1,1.707266998E1,-2.779265881E0
3.777925594E1,-2.627760649E0,1.368963337E1,-2.225496531E0
3.779925594E1,-3.003344059E0,9.841625214E0,-2.644366980E0
3.781925594E1,-2.586379290E0,5.437777519E0,-2.563615322E0
3.783925594E1,-1.160641098E1,5.701953888E0,-1.860093474E0
3.785925594E1,-7.536285877E0,5.494367123E0,-1.971021652E0
3.787925594E1,-4.144315243E0,7.270060062E0,-1.207482100E0
3.789925594E1,-1.289804339E0,8.111153603E0,-9.383067489E-1
3.791925594E1,-1.627195179E-1,1.148150826E1,1.732223988E0
3.793925594E1,-9.384408593E-1,1.617338753E1,3.643974960E-1
3.795925594E1,-1.334164023E0,1.536816025E1,-8.057158589E-1
3.797925594E1,-9.375310540E-1,1.068830109E1,-1.288271993E-1
3.799925594E1,-1.476772308E0,7.919358253E0,7.721012831E-1
3.801925594E1,-2.378907442E0,7.359842777E0,2.200625658E0
3.803925594E1,-9.160981178E-1,7.082527161E0,2.240235329E0
3.805925594E1,-3.096468747E-1,7.243819714E0,2.803744078E0
3.807925594E1,-8.532168269E-1,6.614384174E0,3.614114285E0
3.809925594E1,-1.247580171E0,5.072030067E0,2.832024574E0
3.811925594E1,-1.716968179E0,4.854980946E0,2.240244865E0
3.813925594E1,-1.148134589E0,5.424992561E0,2.169003010E0
3.815925594E1,-3.067355454E-1,6.041729450E0,3.004138708E0
3.817925594E1,8.383536339E-2,6.482913971E0,3.499346018E0
3.819925594E1,-9.512354732E-1,7.218757153E0,2.755908012E0
3.821925594E1,-2.250808001E0,9.280299187E0,2.934065342E0
3.823925594E1,-4.230640411E0,1.189596462E1,1.491903663E0
3.825925594E1,-4.803773880E0,1.154629612E1,8.161162734E-1
3.827925594E1,-4.301106453E0,8.945379257E0,1.179699779E0
3.829925594E1,-4.419437408E0,7.652107716E0,2.946017265E0
3.831925594E1,-3.529350042E0,7.343801498E0,5.747117996E0
3.833925594E1,-2.722360373E0,7.561137676E0,5.978551388E0
3.835925594E1,-2.092608929E0,9.198350906E0,1.268677831E0
3.837925594E1,-2.937283039E0,1.292242622E1,-5.497373939E-1
3.839925594E1,-5.809826851E0,1.532361889E1,-1.374501586E0
3.841925594E1,-4.866674423E0,1.640256119E1,1.266685843E0
3.843925594E1,-2.159818888E0,1.558129120E1,-2.474637270E0
3.845925594E1,6.217550039E-1,1.222964001E1,-5.159600258E0
3.847925594E1,2.289555788E0,9.546018600E0,-2.594577074E0
3.849925594E1,2.377969027E0,7.525952339E0,-1.933174133E0
3.851925594E1,9.967635870E-1,9.953961372E0,-3.503770530E-1
3.853925594E1,-7.445009053E-2,1.187199497E1,1.292639017E0
3.855925594E1,-1.670127988E0,1.134208012E1,1.381741613E-1
3.857925594E1,-2.414255381E0,1.005195999E1,-8.971743584E-1
3.859925594E1,-3.324665070E0,9.019082069E0,8.121418953E-1
3.861925594E1,-8.031378746E0,7.992103577E0,1.248126030E0
3.863925594E1,-2.761989355E0,5.215414047E0,-7.310838103E-1
3.865925594E1,-1.417731285E0,5.794082642E0,6.903440952E-1
3.867925594E1,-1.045021117E-1,7.649521828E0,1.425603390E0
3.869925594E1,2.660628259E-1,9.146041870E0,5.749627352E-1
3.871925594E1,4.183053374E-1,9.820066452E0,9.479984641E-1
3.873925594E1,-1.612734199E-1,1.004784203E1,1.627482533E0
3.875925594E1,-3.593026102E-1,9.508590698E0,1.763128400E0
3.877925594E1,-1.886535138E-1,8.847168922E0,1.640506983E0
3.879925594E1,1.051054522E-1,8.129933357E0,6.830944419E-1
3.881925594E1,2.788766101E-2,7.417514324E0,9.201108217E-1
3.883925594E1,-3.724707365E-1,7.638049126E0,7.157704979E-2
3.885925594E1,-1.288396478E0,7.548888683E0,-1.098890662E0
3.887925594E1,-1.528056026E0,8.591937065E0,3.202388287E-1
3.889925594E1,-7.500746250E-1,1.043986797E1,3.231214583E-1
3.891925594E1,6.076962352E-1,1.088383007E1,-7.029376030E-1
3.893925594E1,1.986344576E0,1.114975834E1,-4.254592061E-1
3.895925594E1,2.781889915E0,1.157872391E1,1.373582244E0
3.897925594E1,2.202818632E0,1.137051392E1,1.277584314E0
3.899925594E1,9.768438339E-1,1.149604702E1,-3.783413172E-1
3.901925594E1,2.848046422E-1,1.169431496E1,-1.133338451E0
3.903925594E1,-7.796095014E-1,1.177793026E1,-2.228963375E0
3.905925594E1,-1.901637673E0,1.106420898E1,-5.239001751E0
3.907925594E1,-3.845355988E0,9.909706116E0,-4.846093655E0
3.909925594E1,-4.749846935E0,1.003672409E1,-2.193241835E0
3.911925594E1,-1.448463249E1,1.355561543E1,2.352542430E-1
3.913925594E1,-1.042721748E1,1.151854324E1,1.217872858E0
3.915925594E1,-8.338573456E0,1.236974812E1,-8.912175894E-2
3.917925594E1,-5.157234669E0,1.052194118E1,1.313037634E0
3.919925594E1,-2.281271935E0,1.027020645E1,3.063333035E-1
3.921925594E1,-1.028328776E0,1.066840935E1,-4.918360233E0
3.923925594E1,-2.991698682E-1,1.073885632E1,-5.883664131E0
3.925925594E1,2.991507053E-1,1.091537571E1,-2.442238808E0
3.927925594E1,1.059941769E0,9.658037186E0,2.120764732E0
3.929925594E1,6.554940939E-1,8.306203842E0,6.047829628E0
3.931925594E1,-2.575777769E-1,6.034278870E0,4.295370102E0
3.933925594E1,-1.687979221E0,4.360760689E0,2.376197100E0
3.935925594E1,-3.257569790E0,3.267414808E0,-5.058181882E-1
3.937925594E1,-1.820263624E0,3.188339233E0,-2.854654491E-1
3.939925594E1,-7.559548020E-1,4.565110207E0,3.159895897E0
3.941925594E1,-2.290676385E-1,5.151402473E0,4.772103310E0
3.943925594E1,-9.484102726E-1,5.985216618E0,4.269139290E0
3.945925594E1,-2.277287960E0,8.197104454E0,2.177612543E0
3.947925594E1,-3.676085949E0,1.168104172E1,1.518115401E-1
3.949925594E1,-3.974843979E0,1.442320633E1,1.952155352E0
3.951925594E1,-3.856637478E0,1.579184723E1,4.553139210E0
3.953925594E1,-2.778461456E0,1.298934841E1,8.468617439E0
3.955925594E1,-3.784926176E0,1.026620197E1,7.079261303E0
3.957925594E1,-7.491437435E0,1.261685848E1,1.217192888E0
3.959925594E1,-8.071026802E0,1.238871098E1,-4.818665981E0
3.961925594E1,-3.542163849E0,1.220651150E1,-1.115633774E1
3.963925594E1,1.734359711E-1,9.918968201E0,-2.332728148E0
3.965925594E1,2.857824326E0,8.765478134E0,5.143070698E0
3.967925594E1,2.376877069E0,9.097755432E0,1.038499355E0
3.969925594E1,1.970935464E0,9.944028854E0,-1.632002711E0
3.971925594E1,-9.007273912E-1,1.159478283E1,-1.239056826E0
3.973925594E1,-2.396672487E0,1.134219646E1,-4.940578640E-1
3.975925594E1,-2.335917234E0,9.798328400E0,-8.110596985E-2
3.977925594E1,-2.786706924E0,8.040035248E0,-1.868454099E0
3.979925594E1,-5.287421703E0,8.296090126E0,3.707018852E0
3.981925594E1,-1.495935440E0,6.997676849E0,2.369436026E0
3.983925594E1,-1.029420495E0,6.926300526E0,-1.146918312E-1
3.985925594E1,-9.271689057E-1,7.165998459E0,-2.625184536E0
3.987925594E1,-1.348117471E0,8.003260612E0,-1.707056165E0
3.989925594E1,-1.838153124E0,9.200916290E0,2.581045032E-1
3.991925594E1,-1.697402716E0,9.498745918E0,2.129728556E0
3.993925594E1,-1.451460838E0,8.490786552E0,4.626469135E0
3.995925594E1,-5.884660482E-1,7.530759811E0,2.256190300E0
3.997925594E1,1.353202760E-2,9.076657295E0,-8.185200691E-1
3.999925594E1,1.020619392E0,1.085050297E1,-5.574179888E-1
4.001925594E1,3.898430467E-1,1.288626385E1,1.717552304E0
4.003925594E1,1.700553447E-1,1.333346272E1,2.755898476E0
4.005925594E1,1.236940265E0,1.317015934E1,1.389115810E0
4.007925594E1,1.732367635E0,1.397740746E1,-1.379989028E0
4.009925594E1,9.693643451E-1,1.437215233E1,-3.244957209E0
4.011925594E1,-9.901555777E-1,1.180404758E1,-5.184260368E0
4.013925594E1,-3.095108986E0,9.226295471E0,-4.438399792E0
4.015925594E1,-3.396682501E0,7.546667099E0,-3.863858223E0
4.017925594E1,-1.226746750E1,1.071362209E1,-3.853419721E-1
4.019925594E1,-8.454098701E0,1.084632683E1,1.005756184E-1
4.021925594E1,-6.711905956E0,1.135731697E1,-2.996860504E0
4.023925594E1,-2.995452642E0,8.340105057E0,7.614901662E-1
4.025925594E1,-8.136646152E-1,8.220808029E0,7.795520425E-1
4.027925594E1,1.854356974E-1,1.046484470E1,-3.704921722E0
4.029925594E1,2.158324867E-1,1.214357281E1,-2.095079660E0
4.031925594E1,7.924232483E-1,1.040324688E1,1.237888455E0
4.033925594E1,1.101974368E0,7.283965588E0,3.875513315E0
4.035925594E1,1.030081287E-1,5.514238834E0,2.997176409E0
4.037925594E1,-9.203693867E-1,4.965190887E0,1.942750931E0
4.039925594E1,-2.593791723E0,4.509028435E0,1.450838327E0
4.041925594E1,-3.530968428E0,3.828730583E0,1.069068432E0
4.043925594E1,-1.617302299E0,3.579752684E0,2.310845137E0
4.045925594E1,-1.270966649E0,4.838921070E0,2.912182331E0
4.047925594E1,-1.413201451E0,5.192516804E0,3.092187881E0
4.049925594E1,-1.821020126E0,6.189595222E0,3.590239286E0
4.051925594E1,-2.659967661E0,8.149517059E0,3.188674212E0
4.053925594E1,-3.204313278E0,1.090778255E1,3.932495356E0
4.055925594E1,-4.534177303E0,1.622139740E1,3.881786108E0
4.057925594E1,-9.667998314E0,1.953707886E1,2.516401768E0
4.059925594E1,-7.798661709E0,1.209626389E1,4.830953121E0
4.061925594E1,-3.848161936E0,7.064053535E0,6.163038731E0
4.063925594E1,-9.984490871E-1,5.051851749E0,6.108738422E0
4.065925594E1,9.678128958E-1,6.931674480E0,5.301892281E0
4.067925594E1,8.656474948E-2,1.277043152E1,2.164070845E0
4.069925594E1,-5.220709801E0,1.858532524E1,-6.945579052E0
4.071925594E1,-7.475406170E0,1.836275101E1,-1.196804047E1
4.073925594E1,-8.967530131E-1,1.317580986E1,4.303816855E-1
4.075925594E1,1.257405996E0,8.410073280E0,2.657850981E-1
4.077925594E1,1.001092315E0,6.685683250E0,-2.864834547E0
4.079925594E1,1.430602551E0,6.126637459E0,-1.104004622E0
4.081925594E1,8.283841610E-1,7.201461315E0,-5.486552119E-1
4.083925594E1,-5.901228189E-1,1.056542969E1,5.959455371E-1
4.085925594E1,-2.699452639E0,1.300582027E1,4.060565829E-1
4.087925594E1,-4.322750092E0,1.082580471E1,-4.047359467E0
4.089925594E1,-5.649147511E0,6.627159595E0,-2.619926929E-1
4.091925594E1,-2.820283413E0,4.205070496E0,1.128051996E0
4.093925594E1,-2.194726229E0,4.164799690E0,-3.956274390E-1
4.095925594E1,-2.194860458E0,5.583201408E0,-1.260298133E0
4.097925594E1,-2.064702034E0,7.919865608E0,-3.530106544E-1
4.099925594E1,-1.769621491E0,9.238151550E0,6.738049388E-1
4.101925594E1,-1.150289416E0,9.559195518E0,1.860256314E0
4.103925594E1,-9.039547443E-1,9.629947662E0,1.424080729E0
4.105925594E1,-1.079689145E0,1.001355648E1,2.686007023E-1
4.107925594E1,-8.693729043E-1,1.121551323E1,3.649050593E-1
4.109925594E1,9.184157252E-1,1.356953144E1,5.024567246E-1
4.111925594E1,2.476916552E0,1.467709732E1,1.579799533E0
4.113925594E1,3.358739138E0,1.427950764E1,1.797260046E0
4.115925594E1,3.333121300E0,1.297328949E1,-8.885648251E-1
4.117925594E1,2.029995680E0,1.282602501E1,-2.192073584E0
4.119925594E1,-4.733144939E-1,1.147984314E1,-4.674353123E0
4.121925594E1,-2.717543364E0,8.840292931E0,-4.812067509E0
4.123925594E1,-3.279625177E0,7.886394501E0,-4.391635895E0
4.125925594E1,-1.056157017E1,1.104331207E1,-2.081844568E0
4.127925594E1,-7.376104355E0,1.140279770E1,7.825591564E-1
4.129925594E1,-7.571518898E0,1.318733978E1,-3.604710102E-2
4.131925594E1,-4.867967129E0,1.253059959E1,-1.255394816E0
4.133925594E1,-1.997147202E0,1.019270134E1,3.282929212E-2
4.135925594E1,-1.088145494E0,9.031934738E0,-4.069137096E0
4.137925594E1,-1.062163562E-1,1.118476295E1,-5.475366592E0
4.139925594E1,3.736007810E-1,1.199442291E1,-2.022870541E0
4.141925594E1,4.844810665E-1,9.878485680E0,2.515041828E0
4.143925594E1,2.188290596E0,5.557028294E0,5.254966259E0
4.145925594E1,2.218754530E0,3.339030266E0,3.810266495E0
4.147925594E1,-2.205921561E-1,2.194908142E0,3.560828924E0
4.149925594E1,-1.506010294E0,2.264751911E0,1.966989875E0
4.151925594E1,-2.116196394E0,2.639703035E0,8.221879601E-1
4.153925594E1,-2.164070845E0,3.296710253E0,7.707126737E-1
4.155925594E1,-1.495121479E0,4.900049686E0,2.815925837E0
4.157925594E1,-9.679182172E-1,5.942733765E0,3.669161797E0
4.159925594E1,-1.187207937E0,9.053280830E0,3.053583860E0
4.161925594E1,-1.944474816E0,1.296396160E1,2.521678448E0
4.163925594E1,-9.392989159E0,1.748022079E1,7.375960350E-1
