"Time (s)","Gyroscope x (rad/s)","Gyroscope y (rad/s)","Gyroscope z (rad/s)"
2.473750100E-2,-5.225515962E-1,6.629458666E-1,3.081553280E-1
4.473750100E-2,-4.901582599E-1,8.356287479E-1,3.883706629E-1
6.473750100E-2,-4.088608325E-1,9.551139474E-1,4.621108174E-1
8.473750100E-2,-3.773576319E-1,6.981142163E-1,2.953620553E-1
1.047375010E-1,-4.111297429E-1,3.678106964E-1,9.131562710E-2
1.247375010E-1,-5.616818666E-1,1.007054932E-2,-1.764527857E-1
1.447375010E-1,-8.668003082E-1,1.752310619E-2,-3.713187873E-1
1.647375010E-1,-9.337511659E-1,3.572340012E-1,-3.724009097E-1
1.847375010E-1,-7.854505181E-1,5.551717877E-1,-2.590243220E-1
2.047375010E-1,-4.502600431E-1,5.307546258E-1,-1.571145356E-1
2.247375010E-1,-1.194154248E-1,4.544662833E-1,-1.082104165E-3
2.447375010E-1,-7.787659019E-2,6.650925875E-1,1.064999923E-1
2.647375010E-1,-2.442064732E-1,1.147309661E0,1.062032878E-1
2.847375010E-1,-3.361329734E-1,1.576154470E0,2.651155181E-2
3.047375010E-1,-3.290992677E-1,1.760007501E0,2.013062686E-1
3.247375010E-1,-3.417529166E-1,1.598477244E0,6.603278518E-1
3.447375010E-1,-3.530451953E-1,5.930454135E-1,8.685805798E-1
3.647375010E-1,-2.770361006E-1,-6.901031733E-2,3.105813265E-1
3.847375010E-1,-4.884303808E-1,-5.052553415E-1,-1.274613887E-1
4.047375010E-1,-7.346963286E-1,-9.780825377E-1,-3.619812801E-2
4.247375010E-1,-8.055043817E-1,-1.381078959E-1,2.415884733E-1
4.447375010E-1,-7.372096181E-1,1.047232509E0,3.767467737E-1
4.647375010E-1,-7.913671732E-1,2.119388103E0,4.965461791E-1
4.847375010E-1,-9.449037910E-1,2.821027994E0,5.199335814E-1
5.047375010E-1,-9.461255074E-1,3.010396242E0,4.075692892E-1
5.247375010E-1,-7.264409661E-1,3.079493761E0,2.741563320E-1
5.447375010E-1,-2.567204833E-1,1.271873832E0,1.450194120E-1
5.647375010E-1,3.915297091E-1,-8.098327555E-3,1.710073650E-1
5.847375010E-1,4.885351062E-1,7.919256687E-1,4.195771366E-2
6.047375010E-1,2.769139409E-1,1.186160684E0,-1.411098689E-1
6.247375010E-1,5.159193277E-2,5.098630190E-1,-2.000845522E-1
6.447375010E-1,-1.768367589E-1,5.449267030E-1,2.617993741E-4
6.647375010E-1,-2.911907434E-1,9.853430986E-1,-2.140297294E-1
6.847375010E-1,-1.722639985E-2,5.319414735E-1,-4.916592315E-2
7.047375010E-1,1.572716236E-1,8.342499137E-1,1.287878454E-1
7.247375010E-1,3.331135511E-1,1.077548862E0,1.886700988E-1
7.447375010E-1,2.809281945E-1,1.168794632E0,1.616174914E-2
7.647375010E-1,1.854935884E-1,6.719168425E-1,-3.492927551E-1
7.847375010E-1,2.192133516E-1,3.302162886E-1,-5.632875562E-1
8.047375010E-1,3.809530139E-1,1.798910797E-1,-5.348386765E-1
8.247375010E-1,5.203175545E-1,-1.865931451E-1,-3.983016014E-1
8.447375010E-1,6.681469679E-1,-6.869441271E-1,-2.579421997E-1
8.647375010E-1,6.165201068E-1,-9.226159453E-1,-2.146231383E-1
8.847375010E-1,2.399304062E-1,-6.207612753E-1,-1.268156171E-1
9.047375010E-1,-6.768386811E-2,-1.394343525E-1,-1.245466918E-1
9.247375010E-1,2.998475730E-2,3.089931011E-1,-1.166752577E-1
9.447375010E-1,2.436828762E-1,1.753881425E-1,-5.700245500E-2
9.647375010E-1,4.274660349E-1,-1.320865154E-1,-1.044230461E-1
9.847375010E-1,5.230926275E-1,-1.548281610E-1,-1.660506278E-1
1.004737501E0,5.433558822E-1,4.409748912E-1,-1.019272283E-1
1.024737501E0,7.683986425E-1,1.495991468E0,1.000771821E-1
1.044737501E0,1.094164371E0,1.508714914E0,1.978156120E-1
1.064737501E0,1.126173735E0,1.003005862E0,2.473829687E-1
1.084737501E0,6.186668873E-1,9.373465180E-1,1.832944751E-1
1.104737501E0,2.384992391E-1,1.298175931E0,2.576629519E-1
1.124737501E0,1.527163088E-1,2.484057188E0,5.911604762E-1
1.144737501E0,4.082325101E-1,2.493621588E0,5.690471530E-1
1.164737501E0,5.955063105E-1,1.441711783E0,1.407258958E-1
1.184737501E0,4.297349751E-1,1.265363693E-1,6.440265104E-3
1.204737501E0,-2.478018403E-1,8.189084530E-1,1.972396523E-1
1.224737501E0,-1.803623289E-1,6.534163356E-1,3.642502055E-2
1.244737501E0,3.281218931E-2,5.764473677E-1,-2.478367537E-1
1.264737501E0,2.131047100E-2,-1.821425557E-1,-1.028173447E0
1.284737501E0,-2.972644866E-1,-6.298718452E-1,-1.120815516E0
1.304737501E0,-4.576776922E-1,-8.899782896E-1,-1.022291660E0
1.324737501E0,-6.873281002E-1,-1.313587189E0,-7.527605295E-1
1.344737501E0,-1.056308150E0,-1.924836397E0,-4.786216319E-1
1.364737501E0,-1.343833685E0,-2.702572584E0,-4.270296991E-1
1.384737501E0,-1.383487582E0,-5.812295675E-1,-7.650650740E-1
1.404737501E0,-1.130903482E0,-4.243069887E-1,-1.089033127E0
1.424737501E0,-8.462926745E-1,-1.014821649E0,-6.802245975E-1
1.444737501E0,-7.893600464E-1,-7.583630085E-1,-8.038986474E-2
1.464737501E0,-7.758337855E-1,-3.078411818E-1,3.772354722E-1
1.484737501E0,-7.309962511E-1,2.867052257E-1,6.021037102E-1
1.504737501E0,-5.208585858E-1,7.757115960E-1,7.138047814E-1
1.524737501E0,-9.341002256E-2,1.017876029E0,8.732754588E-1
1.544737501E0,3.132691383E-1,8.280016184E-1,1.086781621E0
1.564737501E0,6.031159759E-1,4.471009970E-1,1.296797037E0
1.584737501E0,6.945886612E-1,4.940328896E-1,1.413577080E0
1.604737501E0,5.113291144E-1,1.125981688E0,1.603817940E0
1.624737501E0,2.596002817E-1,2.099892855E0,2.344902277E0
1.644737501E0,-6.091198884E-3,1.693510413E0,2.733970881E0
1.664737501E0,-3.166550994E-1,1.979447722E0,2.654994965E0
1.684737501E0,-8.910429478E-1,1.989832401E0,2.344029427E0
1.704737501E0,-1.205481410E0,1.749325991E0,1.971907854E0
1.724737501E0,-1.528402328E0,1.271437407E0,1.512153268E0
1.744737501E0,-1.587883115E0,-7.216936350E-2,1.130955935E0
1.764737501E0,-1.694714665E0,-6.560867429E-1,1.176735878E0
1.784737501E0,-1.832403779E0,-3.417180181E-1,1.574845433E0
1.804737501E0,-1.904642940E0,4.358436167E-1,2.075213909E0
1.824737501E0,-1.889423609E0,1.117848516E0,2.900614977E0
1.844737501E0,-1.681729436E0,6.916390657E-1,3.677495956E0
1.864737501E0,-1.282694817E0,-5.992762446E-1,3.323892355E0
1.884737501E0,-7.278372049E-1,7.309439033E-2,1.863365889E0
1.904737501E0,6.010564566E-1,1.550934434E0,2.723237276E-1
1.924737501E0,1.597988605E0,1.077007771E0,-4.226663709E-1
1.944737501E0,2.014616013E0,4.125260115E-1,-2.196845859E-1
1.964737501E0,2.071164846E0,-2.677509487E-1,3.204075396E-1
1.984737501E0,1.902915001E0,-8.575500846E-1,9.856223464E-1
2.004737501E0,1.626053452E0,-6.387381554E-1,8.991761804E-1
2.024737501E0,1.320865154E0,-7.113787532E-1,8.286125064E-1
2.044737501E0,9.625316262E-1,-1.060514450E0,8.463625312E-1
2.064737501E0,4.590913951E-1,-2.067098141E0,9.625665545E-1
2.084737501E0,1.045452245E-2,-2.503395557E0,9.396852851E-1
2.104737501E0,-3.357315361E-1,-1.830798030E0,7.226012349E-1
2.124737501E0,-4.724257290E-1,-2.786592543E-1,4.460887015E-1
2.144737501E0,-3.977081776E-1,1.231085420E0,6.123836637E-1
2.164737501E0,-2.442239225E-1,2.707372189E0,5.810026526E-1
2.184737501E0,5.161811113E-1,1.928082705E0,-1.469218135E-1
2.204737501E0,5.825734735E-1,1.204329491E0,-9.602103233E-1
2.224737501E0,1.532399058E-1,1.501070380E0,-6.724753380E-1
2.244737501E0,-4.056668878E-1,1.912322402E0,1.892809570E-1
2.264737501E0,-1.681258202E0,4.136953950E-1,1.319015145E0
2.284737501E0,-2.809456587E0,-1.518959999E0,2.100695848E0
2.304737501E0,-3.230866194E0,-1.219339371E0,2.629408360E0
2.324737501E0,-5.864480734E-1,1.691834927E0,2.220879078E0
2.344737501E0,-5.867622495E-1,-3.824889064E-1,2.410404444E0
2.364737501E0,-7.285353541E-1,-1.628444552E0,2.464736462E0
2.384737501E0,-1.933650225E-1,-1.621498108E0,2.357171774E0
2.404737501E0,1.990373433E-1,-1.309503078E0,2.250410080E0
2.424737501E0,3.632728159E-1,-1.045242786E0,2.098426819E0
2.444737501E0,2.068913281E-1,-7.323226929E-1,2.311357021E0
2.464737501E0,1.319992542E-1,-6.995628476E-1,2.746205807E0
2.484737501E0,-3.811450005E-1,-9.508553743E-1,3.262369394E0
2.504737501E0,-9.697049260E-1,-9.359328151E-1,3.609532833E0
2.524737501E0,-1.076135159E0,-9.281660914E-1,3.310365915E0
2.544737501E0,-7.660250068E-1,-3.380004764E-1,2.548634529E0
2.564737501E0,-9.819222242E-2,1.119698524E0,1.969534278E0
2.584737501E0,7.317991257E-1,1.504089832E0,1.662268996E0
2.604737501E0,3.517711163E-1,1.531962752E0,1.276411653E0
2.624737501E0,-3.177720904E-1,1.235064745E0,1.049309373E0
2.644737501E0,-2.190911770E-1,1.175514102E0,8.686852455E-1
2.664737501E0,3.689626157E-1,1.927768469E0,8.974657655E-1
2.684737501E0,6.750584245E-1,2.293030977E0,1.040739775E0
2.704737501E0,1.935570128E-2,3.031270266E0,1.245466948E0
2.724737501E0,-7.532491684E-1,3.042894363E0,1.079800248E0
2.744737501E0,1.103501916E0,9.142557979E-1,4.277103841E-1
2.764737501E0,2.224928379E0,2.046765089E0,8.179311156E-1
2.784737501E0,1.508837104E0,2.341463804E0,1.148618579E0
2.804737501E0,8.607789278E-1,1.681380391E0,1.331040502E0
2.824737501E0,6.894224882E-1,1.743252277E0,1.179825068E0
2.844737501E0,4.416555762E-1,1.701189876E0,8.352098465E-1
2.864737501E0,-4.026823640E-1,1.879597425E0,3.402344882E-1
2.884737501E0,-9.595820308E-1,1.348650813E0,1.227315515E-1
2.904737501E0,-1.421291471E0,1.371287704E0,-3.680550456E-1
2.924737501E0,-1.918832421E0,1.975817442E0,-7.952243686E-1
2.944737501E0,-2.024599314E0,3.166481018E0,-1.236879945E0
2.964737501E0,-1.966200709E0,3.815795898E0,-1.793744683E0
2.984737501E0,-7.610158920E-1,3.717638493E0,-1.715100169E0
3.004737501E0,3.024131954E-1,2.606265306E0,-1.553046346E0
3.024737501E0,2.700862169E0,1.435062051E0,-7.647508979E-1
3.044737501E0,2.891207695E0,3.022159815E0,-2.889741659E-1
3.064737501E0,1.351373553E0,4.038499832E0,-2.706482112E-1
3.084737501E0,1.863662601E-1,1.583100915E0,-3.579321206E-1
3.104737501E0,-2.769663036E-1,2.066469751E-2,-6.175323725E-1
3.124737501E0,-1.545838118E-1,-1.192583442E-1,-8.392764926E-1
3.144737501E0,3.678630590E-1,9.220574498E-1,-7.789579034E-1
3.164737501E0,8.382118344E-1,8.783718348E-1,-5.526235700E-1
3.184737501E0,1.132107854E0,4.973490238E-1,-3.758043051E-1
3.204737501E0,1.406875014E0,1.099819183E0,-3.876550794E-1
3.224737501E0,9.719215035E-1,1.500058174E0,-5.946860313E-1
3.244737501E0,4.356516302E-1,2.039783716E0,-6.315648556E-1
3.264737501E0,3.086789250E-1,2.045805216E0,-2.604380250E-1
3.284737501E0,1.611811519E-1,1.363329053E0,8.339183033E-2
3.304737501E0,-3.746174574E-1,9.843133092E-1,-3.874630854E-2
3.324737501E0,-7.235437036E-1,6.584254503E-1,-2.059837580E-1
3.344737501E0,-1.018818498E0,-1.391376406E-1,-3.689626157E-1
3.364737501E0,-8.640776277E-1,-1.449496001E-1,-3.689800501E-1
3.384737501E0,-7.099301219E-1,3.682644665E-1,-3.615972996E-1
3.404737501E0,-4.684463739E-1,4.646590054E-1,-1.351931989E-1
3.424737501E0,-7.517133355E-1,1.069415569E0,5.868669748E-1
3.444737501E0,-1.059118152E0,1.063062549E0,1.315925837E0
3.464737501E0,-7.237182260E-1,6.259623170E-1,1.990181446E0
3.484737501E0,3.321361542E-2,-2.668433785E-1,2.019799709E0
3.504737501E0,7.569318414E-1,-1.105439186E0,1.409876943E0
3.524737501E0,1.067862272E0,-1.187748909E0,9.611877203E-1
3.544737501E0,7.895520329E-1,-1.062381938E-1,9.872629642E-1
3.564737501E0,1.574636102E-1,1.272275209E0,1.170801759E0
3.584737501E0,-3.959279358E-1,1.442654252E0,1.209862232E0
3.604737501E0,-5.718396902E-1,8.777086139E-1,1.068281174E0
3.624737501E0,-4.245862365E-1,5.803219676E-1,6.220877171E-1
3.644737501E0,-3.403915763E-1,9.663189650E-1,3.377211988E-1
3.664737501E0,-9.285151958E-2,-1.179842558E-2,6.075316668E-1
3.684737501E0,-2.331759781E-2,1.576032303E-2,5.137551427E-1
3.704737501E0,3.187494874E-1,1.084373072E-1,8.967501670E-2
3.724737501E0,9.370847344E-1,3.455751836E-1,-1.386315078E-1
3.744737501E0,1.131496906E0,2.977531776E-2,-1.195201501E-1
3.764737501E0,8.016820550E-1,-3.014532626E-1,-2.892010473E-2
3.784737501E0,2.729869485E-1,-4.572588205E-1,-2.209412307E-1
3.804737501E0,1.062032878E-1,-5.013109446E-1,-6.473600864E-1
3.824737501E0,4.225965738E-1,-8.681966066E-1,-9.267349243E-1
3.844737501E0,9.614320397E-1,-1.961610436E0,-3.474077880E-1
3.864737501E0,1.371532083E0,-1.577515841E0,-2.450442314E-1
3.884737501E0,1.366261244E0,-8.414232135E-1,-5.244888663E-1
3.904737501E0,1.140275955E0,-2.689203322E-1,-7.215714455E-1
3.924737501E0,1.164117098E0,-5.792747810E-2,-2.079559863E-1
3.944737501E0,1.295976758E0,1.112647429E-1,8.451058865E-1
3.964737501E0,1.338859558E0,3.854036033E-1,1.427487373E0
3.984737501E0,1.280495763E0,3.585779071E-1,1.094199300E0
4.004737501E0,7.531445026E-1,5.194798112E-1,-3.780383244E-2
4.024737501E0,3.683866560E-1,5.025151968E-1,-2.493028343E-1
4.044737501E0,2.938087285E-1,1.363014817E0,2.908765674E-1
4.064737501E0,3.292912543E-1,1.924452424E0,8.289266825E-1
4.084737501E0,1.222952232E-1,1.660663366E0,5.913000703E-1
4.104737501E0,-3.016627133E-1,1.495066524E0,-1.226617396E-1
4.124737501E0,-1.112071395E0,7.734252214E-1,-7.654141188E-1
4.144737501E0,-1.711382627E0,4.175874889E-1,-5.958379507E-1
4.164737501E0,-1.717002511E0,7.408224344E-1,8.628907800E-2
4.184737501E0,-1.306396365E0,1.526587129E0,2.765823305E-1
4.204737501E0,-7.165798545E-1,1.997965693E0,7.414158434E-2
4.224737501E0,-6.229777932E-1,1.936355591E0,-8.777260780E-2
4.244737501E0,-8.534659743E-1,1.578824878E0,-2.527236752E-2
4.264737501E0,-1.298856616E0,7.042927146E-1,3.896098435E-1
4.284737501E0,-1.393348694E0,1.099836707E0,6.629633307E-1
4.304737501E0,-1.150817752E0,1.689042330E0,4.919734001E-1
4.324737501E0,-9.485166073E-1,1.801232100E0,2.610838115E-1
4.344737501E0,-1.016828775E0,1.363451242E0,-3.356442750E-1
4.364737501E0,-1.376069903E0,3.752457798E-1,-4.993736148E-1
4.384737501E0,-1.374673724E0,8.532914519E-2,-5.923647434E-2
4.404737501E0,-1.191291928E0,2.188642882E-2,1.246863231E-1
4.424737501E0,-1.569923639E0,-3.673568964E-1,-3.205820620E-1
4.444737501E0,-2.640351534E0,-5.462531447E-1,-7.856425047E-1
4.464737501E0,-3.688090086E0,-2.311339527E-1,-1.092994928E0
4.484737501E0,-4.414513588E0,-7.478561401E-1,-5.522745252E-1
4.504737501E0,-4.144563675E0,-1.039797306E0,2.878571451E-1
4.524737501E0,-3.374471903E0,-1.429093003E0,1.072382689E0
4.544737501E0,-2.639880180E0,-1.393226504E0,1.568736792E0
4.564737501E0,-1.951609731E0,-1.061701179E0,1.107533574E0
4.584737501E0,-1.205080032E0,-4.163832068E-1,2.756049335E-1
4.604737501E0,-5.682617426E-1,-7.806857824E-1,-2.064899057E-1
4.624737501E0,1.527686715E-1,-8.814785480E-1,-3.588047922E-1
4.644737501E0,4.045847654E-1,-6.513394117E-1,-4.729667604E-1
4.664737501E0,1.941853315E-1,-6.970845163E-2,-3.154333532E-1
4.684737501E0,-1.549328715E-1,4.282339811E-1,1.022588387E-1
4.704737501E0,-6.719168425E-1,-3.170041442E-1,3.197268546E-1
4.724737501E0,-9.411164522E-1,-1.556170464E0,1.968207806E-1
4.744737501E0,-1.111024261E0,-3.203255177E0,-4.756022245E-2
4.764737501E0,-9.214989543E-1,-5.260107994E0,-2.284635976E-2
4.784737501E0,-4.803669751E-1,-6.094130993E0,3.197966814E-1
4.804737501E0,-2.821848392E-1,-4.915737152E0,4.758465588E-1
4.824737501E0,-8.150861859E-1,-3.452139139E0,4.857076705E-1
4.844737501E0,-1.545803189E0,-1.222969651E0,5.939180851E-1
4.864737501E0,-1.445603848E0,5.323254317E-2,6.103416085E-1
4.884737501E0,-9.585697055E-1,5.954016447E-1,3.388556838E-1
4.904737501E0,-6.456496716E-1,8.462752700E-1,8.347909898E-2
4.924737501E0,-5.202128291E-1,-7.958701812E-3,3.318918049E-1
4.944737501E0,-4.769985005E-2,-7.336316705E-1,6.750235558E-1
4.964737501E0,2.896897495E-1,-1.770269990E0,8.762076497E-1
4.984737501E0,1.120152324E-1,-3.055076599E0,1.147065282E0
5.004737501E0,-3.387683928E-1,-3.185801744E0,1.394570470E0
5.024737501E0,-6.921975613E-1,-1.977335811E0,1.231574178E0
5.044737501E0,-8.160810471E-1,-2.796017379E-2,7.286924124E-1
5.064737501E0,-1.214574575E0,1.578248858E0,2.877000868E-1
5.084737501E0,-1.802942514E0,1.928309560E0,2.073276639E-1
5.104737501E0,-2.048737288E0,1.862999320E0,2.966535985E-1
5.124737501E0,-1.984840751E0,1.351548076E0,5.188514590E-1
5.144737501E0,-1.787321925E0,1.555158138E0,7.086909413E-1
5.164737501E0,-1.553465247E0,9.292307496E-1,1.109889746E0
5.184737501E0,-9.475218058E-1,-4.005530477E-2,1.372247696E0
5.204737501E0,-1.034456640E-1,-1.263443828E0,1.647433758E0
5.224737501E0,3.179815412E-1,-1.872127414E0,1.695500135E0
5.244737501E0,6.328215003E-1,-1.626960993E0,1.836173654E0
5.264737501E0,5.623276234E-1,-6.245311499E-1,2.084464073E0
5.284737501E0,2.508387268E-1,3.996803891E-3,2.335547209E0
5.304737501E0,2.778564095E-1,-1.121775508E0,1.553465247E0
5.324737501E0,-9.679596126E-2,-2.901435196E-1,8.755444288E-1
5.344737501E0,-9.041852951E-1,-1.083081484E0,1.172529697E0
5.364737501E0,-8.888089061E-1,-2.170089960E0,7.488160729E-1
5.384737501E0,-4.206767082E-1,-2.325686216E0,5.169665217E-1
5.404737501E0,3.008075058E-1,-1.596435189E0,5.963964462E-1
5.424737501E0,4.552167654E-1,-1.674521208E0,4.556007385E-1
5.444737501E0,2.842094004E-1,-8.432208896E-1,6.905569434E-1
5.464737501E0,1.888271719E-1,-3.499210477E-1,4.073947668E-1
5.484737501E0,-8.035495877E-2,-1.218745947E0,-6.376037002E-1
5.504737501E0,-2.721317410E-1,-1.670070648E0,-1.171656966E0
5.524737501E0,-3.315776587E-1,-1.072155714E0,-1.056901574E0
5.544737501E0,-3.705683053E-1,-1.576381326E-1,-8.130790591E-1
5.564737501E0,-3.145956099E-1,3.052057326E-1,-6.483723521E-1
5.584737501E0,-6.059783325E-2,-5.172632337E-1,-6.547428370E-1
5.604737501E0,3.351381123E-1,-1.979726911E0,-3.214896619E-1
5.624737501E0,5.783148408E-1,-3.662503719E0,5.335994959E-1
5.644737501E0,9.107127786E-2,-2.729555368E0,8.678300381E-1
5.664737501E0,-7.943691611E-1,-1.365894675E0,2.995159626E-1
5.684737501E0,-1.291491270E0,-6.648657322E-1,-1.485798806E-1
5.704737501E0,-1.460474014E0,-6.736272573E-1,-4.496491849E-1
5.724737501E0,-9.969844222E-1,-1.100273013E0,-5.262167752E-2
5.744737501E0,-5.290442109E-1,-1.300828815E0,2.895850241E-1
5.764737501E0,-2.638763189E-1,-6.519851685E-1,9.114108980E-2
5.784737501E0,1.467821896E-1,4.565781355E-2,-5.089554787E-1
5.804737501E0,9.280613661E-1,-5.950700045E-1,-6.346540451E-1
5.824737501E0,1.288646340E0,-1.167503119E0,-2.933025658E-1
5.844737501E0,9.407150149E-1,-1.080568194E0,-2.426007763E-3
5.864737501E0,3.332706094E-1,-6.888116598E-1,-1.620014608E-1
5.884737501E0,-1.047023013E-1,4.021238536E-2,-5.645791292E-1
5.904737501E0,-2.055823356E-1,4.155454338E-1,-9.381493926E-1
5.924737501E0,-1.011418328E-1,2.347816974E-1,-1.198727012E0
5.944737501E0,-2.551496923E-1,4.938234687E-1,-1.282642484E0
5.964737501E0,-4.155628979E-1,1.495363235E0,-1.403384328E0
5.984737501E0,-6.490879655E-1,2.406023741E0,-1.538996458E0
6.004737501E0,-5.465323925E-1,8.713730574E-1,-1.340011477E0
6.024737501E0,-6.129945517E-1,-4.705058634E-1,-1.023164392E0
6.044737501E0,-1.119174957E0,-7.229502797E-1,-7.057064176E-1
6.064737501E0,-1.257317781E0,-1.145005822E0,-2.534916103E-1
6.084737501E0,-9.855874181E-1,-1.620276451E0,2.628291249E-1
6.104737501E0,-7.097730637E-1,-1.678884506E0,6.367833614E-1
6.124737501E0,-5.686107874E-1,-1.447069883E0,5.609313846E-1
6.144737501E0,-8.711112738E-1,-1.102629185E0,-2.232625186E-1
6.164737501E0,-1.164658189E0,-9.672788978E-1,-9.403135777E-1
6.184737501E0,-1.166246414E0,-7.779805064E-1,-1.138827324E0
6.204737501E0,-7.803366780E-1,-6.274458766E-1,-1.013076305E0
6.224737501E0,-4.750262499E-1,-5.056044459E-1,-8.762425184E-1
6.244737501E0,-4.911705554E-1,-4.957084060E-1,-7.218506932E-1
6.264737501E0,-7.149741054E-1,-4.717799425E-1,-5.370552540E-1
6.284737501E0,-6.874852180E-1,-4.276754856E-1,-2.636843324E-1
6.304737501E0,-4.078310728E-1,-4.173256755E-1,4.731587693E-2
6.324737501E0,-2.116735280E-1,-5.001066327E-1,2.855882347E-1
6.344737501E0,-5.941100791E-2,-6.101496220E-1,3.448421657E-1
6.364737501E0,-7.225662936E-3,-6.620906591E-1,1.991071552E-1
6.384737501E0,1.473057922E-2,-3.487516940E-1,-3.495196402E-1
6.404737501E0,1.901885271E-1,-9.035569429E-2,-7.033851147E-1
6.424737501E0,4.333652556E-1,2.812772691E-1,-6.993010640E-1
6.444737501E0,4.768937528E-1,5.097582936E-1,-5.795190930E-1
6.464737501E0,2.550973296E-1,5.378406644E-1,-3.773576319E-1
6.484737501E0,-3.986331820E-2,3.536036909E-1,-2.272418700E-2
6.504737501E0,-3.017325103E-1,5.684537441E-2,3.263591230E-1
6.524737501E0,-3.361853063E-1,-1.725083441E-1,6.585476398E-1
6.544737501E0,-2.729520500E-1,2.984513063E-3,7.558497190E-1
6.564737501E0,-5.129173398E-1,-2.482730895E-1,4.912054539E-1
6.584737501E0,-9.155822396E-1,-2.591639459E-1,1.727875881E-2
6.604737501E0,-1.270355344E0,-1.695761830E-1,-5.941798687E-1
6.624737501E0,-1.374638796E0,1.837308109E-1,-1.115213037E0
6.644737501E0,-1.069694877E0,2.091777027E-1,-1.232638836E0
6.664737501E0,-7.421663404E-1,4.673991725E-2,-1.271402597E0
6.684737501E0,-6.093293428E-1,-1.527337581E-1,-1.488608718E0
6.704737501E0,-4.664217830E-1,-3.705159426E-1,-1.615546584E0
6.724737501E0,-1.631359309E-1,-4.243768156E-1,-1.438273430E0
6.744737501E0,1.385616958E-1,-2.303311080E-1,-1.184799314E0
6.764737501E0,4.033455849E-1,2.830924094E-2,-1.125091553E0
6.784737501E0,5.149244666E-1,-7.476990670E-2,-1.082208872E0
6.804737501E0,3.085741997E-1,-2.067167908E-1,-8.373216987E-1
6.824737501E0,-4.082325101E-2,1.392772701E-2,-5.216614604E-1
6.844737501E0,-4.658807218E-1,5.763775110E-1,-2.274163961E-1
6.864737501E0,-7.352199554E-1,6.756518483E-1,-1.547234356E-1
6.884737501E0,-8.599586487E-1,4.106236100E-1,-2.183755934E-1
6.904737501E0,-8.075813055E-1,6.091199070E-2,-3.430793583E-1
6.924737501E0,-5.356590152E-1,-1.814269722E-1,-5.342976451E-1
6.944737501E0,-6.736970693E-2,-2.731091082E-1,-6.971194148E-1
6.964737501E0,2.261772156E-1,-2.004161626E-1,-6.118426323E-1
6.984737501E0,2.449569553E-1,8.005825430E-2,-5.119400024E-1
7.004737501E0,3.649483621E-2,2.499660552E-1,-6.167644262E-1
7.024737501E0,-1.169719696E-1,2.597573400E-1,-6.534337997E-1
7.044737501E0,-2.659532726E-1,2.418153733E-1,-5.379802585E-1
7.064737501E0,-4.177794755E-1,6.498384476E-1,-4.260697663E-1
7.084737501E0,-1.357342601E-1,1.041193604E0,-4.178143740E-1
7.104737501E0,8.783718348E-1,1.345753551E0,-7.909308672E-1
7.124737501E0,1.761019707E0,3.709871769E-1,-1.419406414E0
7.144737501E0,1.785192609E0,-6.635741889E-2,-1.569068432E0
7.164737501E0,1.260197520E0,7.285178900E-1,-1.378461003E0
7.184737501E0,5.359207988E-1,8.504815102E-1,-1.030494690E0
7.204737501E0,-1.802401543E-1,3.527310491E-1,-3.855083287E-1
7.224737501E0,-5.103517175E-1,-3.581415489E-2,8.318064809E-1
7.244737501E0,-4.483227134E-1,4.084070213E-3,1.520530820E0
7.264737501E0,-2.946988344E-1,3.895400465E-1,1.699793577E0
7.284737501E0,-8.815658092E-2,8.540070653E-1,1.375249624E0
7.304737501E0,1.928414255E-1,1.088020802E0,7.504740953E-1
7.324737501E0,3.804817796E-1,1.172791481E0,4.570144713E-1
7.344737501E0,3.448247015E-1,1.142387748E0,4.981693327E-1
7.364737501E0,9.564404190E-2,1.106154799E0,6.929306388E-1
7.384737501E0,6.176720187E-2,7.871086001E-1,6.784443855E-1
7.404737501E0,6.659652591E-1,5.963964462E-1,6.199758649E-1
7.424737501E0,9.629505277E-1,8.673064709E-1,8.868541718E-1
7.444737501E0,1.093710542E0,4.923923016E-1,1.064493775E0
7.464737501E0,1.123136878E0,-1.351408362E-1,8.538150787E-1
7.484737501E0,1.298559904E0,-5.079082847E-1,5.744576454E-1
7.504737501E0,1.465413332E0,-1.648987085E-1,3.329913616E-1
7.524737501E0,1.761299014E0,7.674212754E-2,2.040115297E-1
7.544737501E0,1.931276679E0,4.257381558E-1,-2.484999746E-1
7.564737501E0,1.331459284E0,1.300793886E-1,-7.760781050E-1
7.584737501E0,3.306526244E-1,-1.247037724E-1,-4.914149046E-1
7.604737501E0,-6.677978635E-1,-6.416354179E-1,3.635520935E-1
7.624737501E0,-8.256803751E-1,-2.051634490E-1,9.485340714E-1
7.644737501E0,-4.692666829E-1,-3.637440801E-1,8.688772321E-1
7.664737501E0,-2.553591132E-1,-2.946814001E-1,8.141961098E-1
7.684737501E0,-3.827507049E-2,-8.096582443E-2,6.629633307E-1
7.704737501E0,7.155850064E-3,-1.595056355E-1,4.514643252E-1
7.724737501E0,1.342158206E-2,3.150319308E-2,1.763480604E-1
7.744737501E0,-2.779785991E-1,-9.234537184E-2,4.162610322E-2
7.764737501E0,-6.770830154E-1,-3.980746865E-1,1.537635084E-2
7.784737501E0,-8.384561539E-1,-5.764299035E-1,1.382649839E-1
7.804737501E0,-6.779207587E-1,-1.456302702E-1,-1.099557383E-3
7.824737501E0,-3.352777362E-1,3.600963354E-1,-4.797561169E-1
7.844737501E0,5.801474303E-2,8.614072204E-1,-1.468101144E0
7.864737501E0,6.843435764E-2,8.960869312E-1,-1.850345731E0
7.884737501E0,-1.171464995E-1,8.186466694E-1,-1.525033832E0
7.904737501E0,-5.214520097E-1,5.774247050E-1,-1.180819988E0
7.924737501E0,-9.148143530E-1,5.519429445E-1,-8.473747969E-1
7.944737501E0,-7.876845598E-1,1.077217236E-1,-5.518905520E-1
7.964737501E0,-5.337042212E-1,-2.583087236E-2,-2.096664011E-1
7.984737501E0,-2.045874894E-1,2.919935882E-1,-4.038691893E-2
8.004737501E0,7.220426947E-2,8.063246608E-1,-2.255663574E-1
8.024737501E0,3.010518551E-1,1.173594236E0,-8.224864006E-1
8.044737501E0,5.005953312E-1,1.016863704E0,-1.374394417E0
8.064737501E0,4.526511431E-1,4.011115730E-1,-1.619037271E0
8.084737501E0,2.009746581E-1,1.147903055E-1,-1.287285089E0
8.104737501E0,-2.247809470E-1,8.047713339E-2,-8.581260443E-1
8.124737501E0,-4.336619675E-1,2.131047100E-2,-6.409023404E-1
8.144737501E0,-3.308446109E-1,2.847155631E-1,-4.885525703E-1
8.164737501E0,-1.155233458E-1,5.387482047E-1,-3.443185389E-1
8.184737501E0,6.089453772E-2,5.647187233E-1,-3.298846781E-1
8.204737501E0,4.972442985E-2,5.816309452E-1,-4.269075394E-1
8.224737501E0,-1.671152711E-1,5.891882181E-1,-3.165503740E-1
8.244737501E0,-4.726177156E-1,4.706105888E-1,-1.059065759E-1
8.264737501E0,-5.624672771E-1,4.660029113E-1,3.419100121E-2
8.284737501E0,-2.579771280E-1,4.406083822E-1,1.589296758E-1
8.304737501E0,1.883384734E-1,3.974987268E-1,5.874254704E-1
8.324737501E0,4.096462131E-1,4.927413464E-1,9.372069240E-1
8.344737501E0,6.200631261E-1,1.033269763E0,6.752155423E-1
8.364737501E0,6.782873273E-1,1.116469622E0,2.707005665E-2
8.384737501E0,8.160985112E-1,8.136026859E-1,-2.036450207E-1
8.404737501E0,8.194844127E-1,1.041176200E0,6.257005036E-2
8.424737501E0,4.211828411E-1,1.086851478E0,3.693640232E-1
8.444737501E0,-4.120198786E-1,5.017821789E-1,3.581415713E-1
8.464737501E0,-1.226320744E0,-2.668433785E-1,5.147324800E-1
8.484737501E0,-1.406246662E0,-5.011712909E-1,9.033824205E-1
8.504737501E0,-1.054562807E0,-4.042182490E-2,9.475218058E-1
8.524737501E0,-2.227563709E-1,3.908490241E-1,4.835958183E-1
8.544737501E0,1.229933500E-1,1.910437346E-1,1.599943340E-1
8.564737501E0,2.084970325E-1,-4.223173261E-1,1.555611938E-1
8.584737501E0,1.849350929E-1,-5.718396902E-1,5.804441571E-1
8.604737501E0,3.924372792E-1,-4.884303808E-1,1.196597695E0
8.624737501E0,4.157374203E-1,-5.433558822E-1,1.299676895E0
8.644737501E0,3.130422533E-1,-4.478165805E-1,9.722356796E-1
8.664737501E0,2.155830711E-1,-2.950479090E-1,8.068831563E-1
8.684737501E0,-1.870992929E-1,-2.198765725E-1,8.016297221E-1
8.704737501E0,-4.142887890E-1,-2.600540640E-3,7.911751866E-1
8.724737501E0,-4.552691281E-1,7.504915702E-4,6.409372687E-1
8.744737501E0,-6.691766977E-1,1.013687253E-1,5.764473677E-1
8.764737501E0,-8.587194681E-1,4.775220901E-2,5.248728395E-1
8.784737501E0,-1.018085480E0,-3.136356547E-2,2.427054793E-1
8.804737501E0,-1.180802464E0,-1.676214188E-1,-2.960776389E-1
8.824737501E0,-1.425253272E0,-5.120795965E-2,-6.764547229E-1
8.844737501E0,-1.528349876E0,-7.147122920E-2,-8.400095105E-1
8.864737501E0,-1.177311897E0,-6.567674130E-2,-8.613723516E-1
8.884737501E0,-8.823337555E-1,-1.982344985E-1,-9.130166173E-1
8.904737501E0,-4.728446007E-1,-2.690599561E-1,-7.854854465E-1
8.924737501E0,-1.922829300E-1,-1.598372459E-1,-3.658733666E-1
8.944737501E0,1.541125681E-2,3.726277873E-2,-7.267551124E-2
8.964737501E0,-8.667305112E-2,1.153662652E-1,-2.426880300E-1
8.984737501E0,-6.400122494E-2,-3.570943698E-2,-5.785592198E-1
9.004737501E0,2.296155095E-1,1.465378404E-1,-7.647683620E-1
9.024737501E0,5.670400262E-1,3.442312777E-1,-6.582683921E-1
9.044737501E0,7.080277205E-1,3.563438654E-1,-5.101073980E-1
9.064737501E0,5.254662633E-1,3.119252324E-1,-3.471809030E-1
9.084737501E0,2.552369535E-1,2.174505740E-1,-4.601735175E-1
9.104737501E0,4.783947393E-2,-7.492698729E-2,-5.791002512E-1
9.124737501E0,-4.854458869E-1,-6.997897625E-1,-1.882512122E-1
9.144737501E0,-5.189038515E-1,-3.012961745E-1,2.295107991E-1
9.164737501E0,2.376963943E-1,6.339734197E-1,-3.125535548E-1
9.184737501E0,5.959252119E-1,1.973967403E-1,-1.024438500E0
9.204737501E0,4.823915362E-1,-1.505870074E-1,-7.415031195E-1
9.224737501E0,3.012089133E-1,-4.008148611E-1,-2.989749014E-1
9.244737501E0,3.301115632E-1,-2.239606529E-1,-2.183406949E-1
9.264737501E0,4.871039391E-1,1.283340603E-1,-3.341258168E-1
9.284737501E0,6.863681674E-1,1.219636053E-1,-6.113888621E-1
9.304737501E0,7.807206511E-1,8.929104358E-2,-7.804937959E-1
9.324737501E0,1.045487165E0,-2.702293396E-1,-5.774596334E-1
9.344737501E0,1.499482155E0,4.306774437E-1,-3.998549283E-1
9.364737501E0,1.677401066E0,3.587175310E-1,-3.938160837E-1
9.384737501E0,-7.700392604E-2,2.692222834E0,2.771757245E-1
9.404737501E0,-1.030198097E0,-7.422187328E-1,3.673917949E-1
9.424737501E0,-1.093029857E0,-4.350756705E-1,-2.468070090E-1
9.444737501E0,-9.586395621E-1,-7.313104272E-1,-5.803917646E-1
9.464737501E0,-7.064743638E-1,-4.210432172E-1,-4.411668777E-1
9.484737501E0,-3.567278385E-1,-3.925420046E-1,-1.633977294E-1
9.504737501E0,-4.699997008E-1,-7.666532993E-1,-3.778288662E-1
9.524737501E0,-4.918686748E-1,7.849269509E-1,-2.157052457E-1
9.544737501E0,-1.764702350E-1,3.904301524E-1,-4.039739072E-1
9.564737501E0,6.729989499E-2,5.221850276E-1,-3.892956972E-1
9.584737501E0,2.580643892E-1,3.825761676E-1,-5.522047281E-1
9.604737501E0,1.451066732E-1,-1.509884298E-1,-8.112465143E-1
9.624737501E0,1.468520015E-1,7.901105285E-2,-9.716422558E-1
9.644737501E0,1.714611501E-1,3.329564631E-1,-9.190729260E-1
9.664737501E0,-1.424886733E-1,4.494222626E-2,-5.301437378E-1
9.684737501E0,-3.889815211E-1,1.428901106E-1,-5.205095410E-1
9.704737501E0,-4.025776386E-1,5.128824711E-1,-5.151513815E-1
9.724737501E0,-3.062878251E-1,5.086587667E-1,-3.714584112E-1
9.744737501E0,-1.307949722E-1,4.037470222E-1,-3.010518551E-1
9.764737501E0,1.096415818E-1,4.787088931E-1,-3.892782331E-1
9.784737501E0,3.296054304E-1,3.212802112E-1,-4.985533059E-1
9.804737501E0,4.460712373E-1,3.832393885E-1,-4.521973431E-1
9.824737501E0,4.551818669E-1,5.508957505E-1,-3.741113245E-1
9.844737501E0,3.288723826E-1,3.417180181E-1,-3.688578904E-1
9.864737501E0,2.272942215E-1,-1.717403904E-2,-4.372398853E-1
9.884737501E0,1.885653734E-1,-5.253441166E-3,-5.265309215E-1
9.904737501E0,1.475501359E-1,-4.050909355E-2,-6.787236333E-1
9.924737501E0,2.117782533E-1,2.096140385E-2,-7.404384613E-1
9.944737501E0,2.872462869E-1,3.665191471E-4,-6.544286609E-1
9.964737501E0,2.191784531E-1,-2.859372795E-1,-6.015102863E-1
9.984737501E0,2.399478704E-1,-1.936791837E-1,-6.041806340E-1
1.000473750E1,4.592135847E-1,-2.868099511E-1,-5.999220014E-1
1.002473750E1,7.771078348E-1,-4.485321641E-1,-5.851914287E-1
1.004473750E1,8.835729361E-1,-6.300638318E-1,-4.022111297E-1
1.006473750E1,8.841139674E-1,-3.309493363E-1,-3.341956437E-1
1.008473750E1,7.763922811E-1,9.765116870E-2,-5.383816957E-1
1.010473750E1,5.953841805E-1,2.933200300E-1,-7.309264541E-1
1.012473750E1,3.783350289E-1,1.395390779E-1,-8.052600026E-1
1.014473750E1,2.503849268E-1,7.693411410E-2,-8.061326742E-1
1.016473750E1,2.369109988E-1,3.044901490E-1,-9.195790887E-1
1.018473750E1,2.415884733E-1,3.930656016E-1,-1.039727569E0
1.020473750E1,1.868724078E-1,1.245117858E-1,-9.053546190E-1
1.022473750E1,1.457873583E-1,-4.874704406E-2,-8.188561201E-1
1.024473750E1,1.571494490E-1,-1.573763341E-1,-8.482823968E-1
1.026473750E1,2.372426093E-1,-1.144761443E-1,-8.252265453E-1
1.028473750E1,3.102671802E-1,-2.561794221E-1,-6.990567446E-1
1.030473750E1,4.288274050E-1,-2.911732793E-1,-5.789431930E-1
1.032473750E1,5.201953650E-1,-7.958701253E-2,-3.949505687E-1
1.034473750E1,6.155951023E-1,-2.730044127E-1,-3.876027167E-1
1.036473750E1,6.552489400E-1,-2.076941775E-3,-4.090179205E-1
1.038473750E1,6.582683921E-1,4.501204193E-2,-3.994709551E-1
1.040473750E1,6.061702967E-1,-1.340412907E-2,-2.712067068E-1
1.042473750E1,5.599190593E-1,-9.164723754E-2,-6.928957067E-3
1.044473750E1,5.485744476E-1,-5.791002512E-2,1.624028832E-1
1.046473750E1,4.229281843E-1,5.675810575E-2,3.370056152E-1
1.048473750E1,2.689028680E-1,1.377064735E-2,4.031012356E-1
1.050473750E1,1.529082954E-1,1.498714238E-1,4.123165905E-1
1.052473750E1,-1.846558414E-2,4.853760451E-2,4.011639357E-1
1.054473750E1,-2.105914205E-1,-6.614797562E-2,2.932502329E-1
1.056473750E1,-3.972893059E-1,8.726646192E-3,2.902308106E-1
1.058473750E1,-3.000395596E-1,-5.180137232E-2,3.172833920E-1
1.060473750E1,-1.982170492E-1,-1.020494029E-1,4.003959894E-1
1.062473750E1,-2.582214475E-1,-1.552121341E-1,3.682470322E-1
1.064473750E1,-3.914424479E-1,-2.707354724E-1,2.013411820E-1
1.066473750E1,-5.207713246E-1,-5.341929197E-1,2.012190074E-1
1.068473750E1,-6.354045868E-1,-5.686282516E-1,2.207492441E-1
1.070473750E1,-5.512622595E-1,-4.963018298E-1,1.795245707E-1
1.072473750E1,-3.405660987E-1,-5.156226158E-1,2.385865152E-1
1.074473750E1,-2.277654596E-2,-5.685235262E-1,4.587423503E-1
1.076473750E1,2.317099124E-1,-7.032629848E-1,5.603902936E-1
1.078473750E1,2.974390090E-1,-8.689296246E-1,4.282863438E-1
1.080473750E1,7.023204863E-2,-9.896714687E-1,1.032187715E-1
1.082473750E1,-1.388583928E-1,-1.123433471E0,3.804817796E-3
1.084473750E1,2.321287990E-3,-1.042136073E0,-1.849176288E-1
1.086473750E1,-8.639379404E-3,-6.904173493E-1,-5.727297664E-1
1.088473750E1,-2.307848930E-1,-5.657484531E-1,-8.082619905E-1
1.090473750E1,-4.579744041E-1,-6.777287722E-1,-8.301658630E-1
1.092473750E1,-6.721088290E-1,-8.221722245E-1,-8.606393337E-1
1.094473750E1,-5.701466799E-1,-9.823236465E-1,-9.752900004E-1
1.096473750E1,-4.329638183E-1,-1.013285756E0,-1.084931612E0
1.098473750E1,-4.940852523E-1,-6.237632036E-1,-1.110291243E0
1.100473750E1,-6.641327143E-1,-3.975336552E-1,-1.116295099E0
1.102473750E1,-6.435901523E-1,-4.214621186E-1,-1.055610061E0
1.104473750E1,-5.707401037E-1,-6.616019607E-1,-1.026201248E0
1.106473750E1,-4.875926375E-1,-7.362322211E-1,-9.515535235E-1
1.108473750E1,-4.320562482E-1,-5.221501589E-1,-9.398248792E-1
1.110473750E1,-4.482703507E-1,-3.991568089E-1,-1.042258263E0
1.112473750E1,-5.458342433E-1,-7.977899909E-2,-9.724799991E-1
1.114473750E1,-6.358932853E-1,-8.173377067E-2,-9.509950280E-1
1.116473750E1,-7.743327618E-1,-8.710937947E-2,-8.747066855E-1
1.118473750E1,-8.144055605E-1,-5.133013427E-2,-7.649603486E-1
1.120473750E1,-6.946235895E-1,7.627088577E-3,-6.069905758E-1
1.122473750E1,-5.208062530E-1,-2.120575123E-2,-3.974289298E-1
1.124473750E1,-5.999045968E-1,-8.862782270E-2,-2.726553380E-1
1.126473750E1,-8.844979405E-1,-3.768165782E-2,-2.963743508E-1
1.128473750E1,-9.052324891E-1,1.119803265E-1,-5.033704042E-1
1.130473750E1,-6.037966609E-1,3.910759389E-1,-6.750584245E-1
1.132473750E1,-3.018023372E-1,4.827929735E-1,-8.496263027E-1
1.134473750E1,-1.673945338E-1,5.848074555E-1,-9.697049260E-1
1.136473750E1,-1.149299294E-1,5.807583332E-1,-1.047197580E0
1.138473750E1,-6.705555320E-2,4.427725673E-1,-1.112595081E0
1.140473750E1,3.925245628E-2,1.474977732E-1,-9.578017592E-1
1.142473750E1,1.900838017E-1,-1.317723561E-2,-6.425254941E-1
1.144473750E1,1.262745708E-1,-2.593035698E-1,-4.414635897E-1
1.146473750E1,1.039518118E-1,-2.335425019E-1,-2.870717645E-1
1.148473750E1,3.759439290E-2,-3.577052355E-1,-2.138028294E-2
1.150473750E1,-2.256361693E-1,-4.024554789E-1,-6.393141299E-2
1.152473750E1,-3.550174236E-1,-1.417032778E-1,-4.759687483E-1
1.154473750E1,-1.928763390E-1,-8.290314116E-3,-6.141988039E-1
1.156473750E1,9.100146592E-2,-1.348266900E-1,-4.651302397E-1
1.158473750E1,2.575756907E-1,-3.211929500E-1,-5.008571148E-1
1.160473750E1,3.611435294E-1,-4.347615242E-1,-6.539748907E-1
1.162473750E1,2.549402416E-1,-5.691867471E-1,-8.332725167E-1
1.164473750E1,1.204626262E-1,-5.039812922E-1,-1.057337880E0
1.166473750E1,5.368632823E-2,-4.486543238E-1,-1.067373514E0
1.168473750E1,2.144311517E-1,-5.307720900E-1,-1.022710562E0
1.170473750E1,2.703340352E-1,-5.252917409E-1,-1.222463489E0
1.172473750E1,5.522221699E-2,-2.654994726E-1,-1.496427894E0
1.174473750E1,3.799581900E-2,2.612757869E-2,-1.483128428E0
1.176473750E1,8.477064222E-2,-4.878195375E-2,-1.328963518E0
1.178473750E1,2.879793197E-2,-2.587101460E-1,-1.323552966E0
1.180473750E1,-2.047620267E-1,-4.266980886E-1,-1.366173863E0
1.182473750E1,-4.620933831E-1,-3.504097462E-1,-1.199512482E0
1.184473750E1,-5.838824511E-1,-3.644421995E-1,-9.870535135E-1
1.186473750E1,-5.222024918E-1,-3.112620115E-1,-9.479057789E-1
1.188473750E1,-2.822197378E-1,-1.651954204E-1,-1.018975616E0
1.190473750E1,-1.458571702E-1,7.398450375E-2,-1.051141977E0
1.192473750E1,-1.717753112E-1,5.301612020E-1,-1.011121631E0
1.194473750E1,-2.613630593E-1,4.423362315E-1,-7.959399223E-1
1.196473750E1,-2.306976169E-1,5.685235262E-1,-8.730834723E-1
1.198473750E1,-6.457718462E-2,5.885773897E-1,-7.095984817E-1
1.200473750E1,-1.570796371E-1,3.063925505E-1,-4.170987904E-1
1.202473750E1,-4.114788175E-1,-6.576400250E-2,-3.432539105E-1
1.204473750E1,-5.372297764E-1,-9.004153311E-2,-5.390275121E-1
1.206473750E1,-5.783846378E-1,-4.391248524E-2,-7.079579234E-1
1.208473750E1,-5.479984879E-1,7.560766488E-2,-6.234664917E-1
1.210473750E1,-5.730264783E-1,5.326744914E-2,-3.417703807E-1
1.212473750E1,-5.965011716E-1,-8.271115273E-2,-2.235243171E-1
1.214473750E1,-6.460685134E-1,-1.110029370E-1,-3.667111397E-1
1.216473750E1,-8.218755126E-1,-1.289274693E-1,-4.621108174E-1
1.218473750E1,-1.115404963E0,-3.968355060E-1,-4.069584310E-1
1.220473750E1,-1.178673148E0,-5.830621123E-1,-2.038370073E-1
1.222473750E1,-1.156455159E0,-6.214070320E-1,-3.567453101E-2
1.224473750E1,-9.661444426E-1,-4.916766882E-1,1.285085976E-1
1.226473750E1,-6.727371812E-1,-2.402271181E-1,1.422443390E-1
1.228473750E1,-4.172907770E-1,3.511602432E-2,1.390852928E-1
1.230473750E1,-1.518611014E-1,2.937389016E-1,2.696533687E-2
1.232473750E1,1.708677411E-2,5.462706089E-1,-6.749188155E-2
1.234473750E1,1.463807672E-1,7.686080933E-1,-2.154085338E-1
1.236473750E1,3.987902701E-1,8.020834923E-1,-3.354697227E-1
1.238473750E1,5.906543136E-1,8.273733258E-1,-3.657337427E-1
1.240473750E1,6.537829041E-1,6.899286509E-1,-4.596848190E-1
1.242473750E1,4.871912003E-1,6.385112405E-1,-5.115036368E-1
1.244473750E1,3.008947708E-2,3.169517964E-2,-4.207814336E-1
1.246473750E1,-1.747947186E-1,-3.063052893E-2,-4.296651483E-1
1.248473750E1,-9.972811490E-2,2.595304511E-2,-3.743033111E-1
1.250473750E1,-2.116386294E-1,-3.698352724E-2,-3.885975480E-1
1.252473750E1,-3.459242582E-1,-6.108652428E-2,-4.985882044E-1
1.254473750E1,-3.781604767E-1,2.268928074E-4,-5.585751534E-1
1.256473750E1,-3.791902363E-1,-5.518731102E-2,-3.998549283E-1
1.258473750E1,-4.009893835E-1,-4.206243530E-2,-2.393020988E-1
1.260473750E1,-4.500156939E-1,-3.960151970E-2,-2.137679309E-1
1.262473750E1,-3.677234054E-1,1.160643995E-2,-2.348340452E-1
1.264473750E1,-1.771509200E-1,1.046150327E-1,-2.825862467E-1
1.266473750E1,-1.846558414E-2,1.923701912E-1,-2.700896859E-1
1.268473750E1,9.704030305E-2,2.719222903E-1,-1.859822869E-1
1.270473750E1,2.737199962E-1,2.131745070E-1,-1.977458037E-2
1.272473750E1,4.377285838E-1,1.125388294E-1,1.410575062E-1
1.274473750E1,5.022359490E-1,8.957029879E-2,3.011914790E-1
1.276473750E1,4.655840397E-1,7.506661117E-2,3.937462866E-1
1.278473750E1,4.416730106E-1,-1.103048120E-2,3.707253933E-1
1.280473750E1,5.593605638E-1,9.375908971E-2,2.337344885E-1
1.282473750E1,7.404384613E-1,4.669453800E-1,2.992192507E-1
1.284473750E1,7.812792063E-1,4.726177156E-1,6.629981995E-1
1.286473750E1,6.925989985E-1,4.317944497E-2,9.569116831E-1
1.288473750E1,7.084640265E-1,-2.422691584E-1,1.053672671E0
1.290473750E1,6.249151230E-1,-3.526437879E-1,1.020319462E0
1.292473750E1,5.292012691E-1,-3.660828173E-1,1.115980983E0
1.294473750E1,5.735151768E-1,-2.143264264E-1,1.204573870E0
1.296473750E1,5.845980048E-1,-2.061582953E-1,1.338231206E0
1.298473750E1,5.037893057E-1,-9.358455241E-2,1.361705899E0
1.300473750E1,5.288696885E-1,1.321214251E-2,1.302399635E0
1.302473750E1,6.928433776E-1,-3.834488243E-2,1.295959353E0
1.304473750E1,8.263086677E-1,-2.591464818E-1,1.229375005E0
1.306473750E1,7.774743438E-1,-1.787915230E-1,1.179615736E0
1.308473750E1,5.266356468E-1,-1.629090309E-1,1.240737081E0
1.310473750E1,2.795144916E-1,-2.664768696E-1,1.361932755E0
1.312473750E1,2.563190460E-1,-2.544690073E-1,1.427731633E0
1.314473750E1,6.539748609E-2,-2.392322868E-1,1.309485674E0
1.316473750E1,8.011060953E-2,-6.016149744E-2,1.101878762E0
1.318473750E1,2.760587335E-1,1.147379428E-1,1.044963479E0
1.320473750E1,5.157098770E-1,2.806663811E-1,1.153802276E0
1.322473750E1,5.912826657E-1,2.453060299E-1,1.149683237E0
1.324473750E1,3.667635024E-1,7.897614688E-2,1.077967644E0
1.326473750E1,2.404540032E-1,-4.370304570E-2,9.845052958E-1
1.328473750E1,2.187595665E-1,9.672614932E-2,8.053472638E-1
1.330473750E1,1.262571216E-1,1.266759932E-1,7.454126477E-1
1.332473750E1,-8.321730047E-2,9.744173288E-2,8.298516870E-1
1.334473750E1,-2.942101657E-1,1.322436035E-1,8.385085464E-1
1.336473750E1,-4.237659276E-1,5.438445881E-2,8.531169295E-1
1.338473750E1,-5.294281840E-1,-1.193979755E-1,9.081995487E-1
1.340473750E1,-5.296725035E-1,-1.465902030E-1,9.633693695E-1
1.342473750E1,-5.000542998E-1,-1.888969839E-1,7.552039623E-1
1.344473750E1,-4.599117041E-1,-2.246762365E-1,5.457295775E-1
1.346473750E1,-5.064771175E-1,-2.938261926E-1,3.858574033E-1
1.348473750E1,-3.740938604E-1,-2.798810005E-1,3.973591030E-1
1.350473750E1,-2.853438854E-1,-4.030488729E-1,4.662472606E-1
1.352473750E1,-2.611012459E-1,-4.547978938E-1,3.196046948E-1
1.354473750E1,-1.504997462E-1,-2.186897546E-1,-5.770058557E-2
1.356473750E1,9.526006877E-2,-2.340486459E-2,-3.815813363E-1
1.358473750E1,2.494250089E-1,-7.489208132E-2,-3.667460382E-1
1.360473750E1,3.415958285E-1,-2.585530877E-1,-2.660056353E-1
1.362473750E1,4.517435730E-1,-2.274513096E-1,-4.074296653E-1
1.364473750E1,3.152239025E-1,6.719517522E-3,-6.377258301E-1
1.366473750E1,1.793674827E-1,-6.216862798E-2,-6.613925099E-1
1.368473750E1,1.705186665E-1,-2.498089820E-1,-5.261818767E-1
1.370473750E1,2.223025858E-1,-5.388005972E-1,-3.701843321E-1
1.372473750E1,2.411521375E-1,-6.506761909E-1,-3.372848630E-1
1.374473750E1,2.364746630E-1,-6.168516874E-1,-3.165329099E-1
1.376473750E1,2.005034238E-1,-5.924519897E-1,-3.069859743E-1
1.378473750E1,2.348165959E-1,-4.339412153E-1,-2.973168492E-1
1.380473750E1,3.090105355E-1,-2.293188125E-1,-3.560297191E-1
1.382473750E1,4.033630490E-1,-3.689625859E-2,-2.997952104E-1
1.384473750E1,4.063650072E-1,2.457423508E-2,-8.279842138E-2
1.386473750E1,4.321784377E-1,1.376192123E-1,-6.623524427E-2
1.388473750E1,4.073773026E-1,2.071356773E-1,9.599311277E-3
1.390473750E1,2.624102533E-1,1.531351954E-1,1.048768312E-1
1.392473750E1,1.251226515E-1,1.094670519E-1,2.042907923E-1
1.394473750E1,1.218239777E-2,5.358160660E-2,2.909812927E-1
1.396473750E1,-2.893755957E-2,9.950122237E-2,3.251897395E-1
1.398473750E1,-4.705407470E-2,2.715732455E-1,3.816511333E-1
1.400473750E1,-4.249876738E-2,4.107108712E-1,4.741186798E-1
1.402473750E1,1.862266287E-2,5.038765669E-1,6.142860651E-1
1.404473750E1,1.320516169E-1,5.136504173E-1,7.676481605E-1
1.406473750E1,1.551423222E-1,4.220380783E-1,9.268221855E-1
1.408473750E1,2.404714674E-1,4.434183538E-1,9.607862830E-1
1.410473750E1,3.528706729E-1,3.023259342E-1,9.349030852E-1
1.412473750E1,5.200383067E-1,1.407782584E-1,9.926385283E-1
1.414473750E1,6.873978972E-1,2.483603507E-1,1.106783032E0
1.416473750E1,5.406855345E-1,3.641105890E-1,1.159963250E0
1.418473750E1,4.183205068E-1,5.233020782E-1,1.063359261E0
1.420473750E1,4.705407619E-1,6.380050778E-1,9.661619067E-1
1.422473750E1,5.996951461E-1,6.530847549E-1,8.483172655E-1
1.424473750E1,6.627364159E-1,6.185446978E-1,7.745247483E-1
1.426473750E1,5.209109783E-1,3.894876838E-1,7.122339606E-1
1.428473750E1,3.689276874E-1,2.585705221E-1,5.483475327E-1
1.430473750E1,2.170666009E-1,7.764969766E-2,3.364820182E-1
1.432473750E1,1.398183256E-1,9.196139872E-2,1.778490543E-1
1.434473750E1,1.678832173E-1,2.131745070E-1,8.503244072E-2
1.436473750E1,2.670702934E-1,2.829876840E-1,4.070107639E-2
1.438473750E1,2.772455513E-1,3.870616555E-1,-1.436406001E-2
1.440473750E1,2.033134103E-1,3.922976553E-1,1.586504281E-2
1.442473750E1,9.018116444E-2,3.563264310E-1,4.626867920E-2
1.444473750E1,4.572762549E-2,4.518657327E-1,5.380849913E-2
1.446473750E1,-4.797910154E-2,2.976135314E-1,1.551597659E-2
1.448473750E1,-5.073672161E-2,2.170142382E-1,-1.141445339E-1
1.450473750E1,-8.594001085E-2,9.288642555E-2,-1.610240787E-1
1.452473750E1,-1.919338554E-1,9.721484035E-3,-1.741838604E-1
1.454473750E1,-2.272767723E-1,-1.287703961E-1,-1.714262366E-1
1.456473750E1,-2.107485086E-1,-2.866354287E-1,-2.092649788E-1
1.458473750E1,-8.114035428E-2,-2.986781895E-1,-2.798286378E-1
1.460473750E1,1.535889693E-3,-2.226516455E-1,-3.206693530E-1
1.462473750E1,9.632471949E-2,-1.936966330E-1,-2.956936955E-1
1.464473750E1,2.979451418E-1,-1.403768361E-1,-3.614227772E-1
1.466473750E1,5.321334600E-1,-5.119050667E-2,-2.506292760E-1
1.468473750E1,5.932723284E-1,-9.276425093E-2,-3.888593614E-2
1.470473750E1,2.745403051E-1,-2.026676387E-1,-6.199409440E-2
1.472473750E1,6.869615614E-2,-1.651255935E-1,-2.826560736E-1
1.474473750E1,6.698573381E-2,-9.731955826E-2,-4.462457895E-1
1.476473750E1,7.182029635E-2,-1.492954642E-1,-3.934670389E-1
1.478473750E1,-1.132369637E-1,-2.808060348E-1,-3.088534772E-1
1.480473750E1,-2.474876940E-1,-1.918989569E-1,-5.310688019E-1
1.482473750E1,-2.737723589E-1,-1.876403540E-1,-7.399497628E-1
1.484473750E1,-3.092897832E-1,-3.942873180E-1,-7.364242077E-1
1.486473750E1,-3.788935244E-1,-4.586201608E-1,-7.473849058E-1
1.488473750E1,-5.020614266E-1,-4.978726208E-1,-8.466243148E-1
1.490473750E1,-6.187541485E-1,-4.796513915E-1,-8.964534402E-1
1.492473750E1,-7.309264541E-1,-4.224394858E-1,-8.097106218E-1
1.494473750E1,-7.272787094E-1,-3.289073110E-1,-7.245211005E-1
1.496473750E1,-6.789330840E-1,-1.677261442E-1,-6.493148208E-1
1.498473750E1,-7.461457253E-1,-1.487893164E-1,-6.558598280E-1
1.500473750E1,-7.769856453E-1,-6.499606371E-2,-6.523168087E-1
1.502473750E1,-7.769856453E-1,-6.499606371E-2,-6.523168087E-1
1.504473750E1,-5.775119662E-1,3.314903975E-1,-3.381401002E-1
1.506473750E1,-6.885149479E-1,3.480012119E-1,-2.003288865E-1
1.508473750E1,-8.250869513E-1,2.649758756E-1,-1.928588748E-1
1.510473750E1,-6.899111867E-1,3.033556640E-1,-1.607622802E-1
1.512473750E1,-4.037120938E-1,3.576877713E-1,1.148426626E-2
1.514473750E1,-3.768863976E-1,2.886076570E-1,2.069436908E-1
1.516473750E1,-4.398578703E-1,2.772280872E-1,3.578099608E-1
1.518473750E1,-2.900388241E-1,3.525041342E-1,4.683765471E-1
1.520473750E1,1.758419275E-1,1.254542619E-1,7.297046781E-1
1.522473750E1,3.233397007E-1,-1.464156657E-1,7.815759182E-1
1.524473750E1,1.819680333E-1,-2.101899981E-1,5.053949952E-1
1.526473750E1,1.934173852E-1,-2.018298805E-1,1.870992929E-1
1.528473750E1,1.354375482E-1,1.494001877E-2,-1.555088311E-1
1.530473750E1,-2.666164935E-1,1.772381812E-1,-6.786189079E-1
1.532473750E1,-2.717826664E-1,2.198765725E-1,-1.014682055E0
1.534473750E1,-7.122688740E-2,-1.685115397E-1,-9.678897858E-1
1.536473750E1,-2.600540593E-2,-4.298222363E-1,-7.421314716E-1
1.538473750E1,-1.114741787E-1,-2.195798755E-1,-6.165550351E-1
1.540473750E1,-2.345547974E-1,1.529432088E-1,-5.611233711E-1
1.542473750E1,-1.940980703E-1,3.608642817E-1,-4.812919796E-1
1.544473750E1,1.234296858E-1,4.871563017E-1,-3.904999793E-1
1.546473750E1,4.109028578E-1,7.745596766E-1,-3.196919560E-1
1.548473750E1,7.236484289E-1,1.160015583E0,-3.198839426E-1
1.550473750E1,9.841737151E-1,1.396001577E0,-2.722015381E-1
1.552473750E1,9.709266424E-1,1.290339351E0,-2.528982162E-1
1.554473750E1,6.893526912E-1,1.223702669E0,-3.584382534E-1
1.556473750E1,3.809879124E-1,1.167869568E0,-4.714134336E-1
1.558473750E1,3.651228845E-1,1.060811162E0,-7.178190351E-1
1.560473750E1,6.527531147E-1,5.904448628E-1,-7.487462759E-1
1.562473750E1,7.656759620E-1,2.643650174E-1,-5.951747298E-1
1.564473750E1,6.736272573E-1,1.807113886E-1,-7.039610744E-1
1.566473750E1,5.365316868E-1,-7.417649496E-3,-7.116056681E-1
1.568473750E1,3.855781257E-1,-3.549825251E-1,-5.732359290E-1
1.570473750E1,3.209137022E-1,-5.547703505E-1,-3.449643254E-1
1.572473750E1,3.288374841E-1,-5.865353346E-1,-2.774550021E-1
1.574473750E1,3.350683153E-1,-2.402794808E-1,-3.451039493E-1
1.576473750E1,1.875879914E-1,-1.579697430E-1,-4.303109348E-1
1.578473750E1,1.082278639E-1,-4.313057661E-1,-5.190958381E-1
1.580473750E1,3.002664447E-1,-3.397108912E-1,-6.356838346E-1
1.582473750E1,5.032133460E-1,-1.097986624E-1,-5.768313408E-1
1.584473750E1,6.272014976E-1,6.506587565E-2,-3.794345856E-1
1.586473750E1,6.866299510E-1,9.304349869E-2,-2.786243558E-1
1.588473750E1,7.250621319E-1,-1.019272301E-2,-3.451912105E-1
1.590473750E1,7.096858025E-1,-1.322436035E-1,-4.401720464E-1
1.592473750E1,6.354569197E-1,-3.003537059E-1,-4.607145488E-1
1.594473750E1,5.340707302E-1,-2.819579542E-1,-4.358785152E-1
1.596473750E1,4.584805369E-1,-2.195624262E-1,-3.612482548E-1
1.598473750E1,5.207713246E-1,-1.705186665E-1,-2.183232307E-1
1.600473750E1,5.386086106E-1,-2.502627671E-1,-1.564164013E-1
1.602473750E1,5.948954821E-1,-1.881115884E-1,-1.754055917E-1
1.604473750E1,4.681671262E-1,-2.645395398E-1,-1.578301191E-1
1.606473750E1,4.605400264E-1,-1.926843524E-1,-1.404815465E-1
1.608473750E1,4.819901288E-1,1.134464052E-3,-1.602037698E-1
1.610473750E1,4.326671064E-1,-5.649630725E-2,-9.705775976E-2
1.612473750E1,4.032408595E-1,-1.522799730E-1,-4.958480224E-2
1.614473750E1,4.587074220E-1,-6.574655324E-2,-3.291691095E-2
1.616473750E1,4.718497694E-1,-7.918559015E-2,-2.373647876E-3
1.618473750E1,5.005429983E-1,-3.733259439E-2,4.010766745E-2
1.620473750E1,5.240350962E-1,1.286656708E-1,-1.302015595E-2
1.622473750E1,4.506440163E-1,1.796990931E-1,-1.110902056E-1
1.624473750E1,3.373546898E-1,1.474279612E-1,-1.921956539E-1
1.626473750E1,2.478193045E-1,7.093018293E-2,-2.128952593E-1
1.628473750E1,2.143264264E-1,9.512044489E-2,-1.574985087E-1
1.630473750E1,1.642529368E-1,1.018748656E-1,-1.246688664E-1
1.632473750E1,9.534733742E-2,6.651449949E-2,-1.031489596E-1
1.634473750E1,-2.972295694E-2,4.433136433E-3,-6.726498902E-2
1.636473750E1,-1.341809183E-1,-2.157226950E-2,2.260201424E-2
1.638473750E1,-3.101450205E-1,6.527531147E-2,1.352281123E-1
1.640473750E1,-3.940255344E-1,1.834166497E-1,1.032885835E-1
1.642473750E1,-3.783350289E-1,3.110351264E-1,6.462953985E-2
1.644473750E1,-3.013485372E-1,2.807187438E-1,8.038986474E-2
1.646473750E1,-2.294060737E-1,2.932851315E-1,8.937831223E-2
1.648473750E1,-2.315004766E-1,1.515469402E-1,1.090656221E-1
1.650473750E1,-2.783800066E-1,-6.326818466E-2,5.911429971E-2
1.652473750E1,-3.049439192E-1,-2.315702885E-1,6.988298148E-2
1.654473750E1,-3.736924529E-1,-3.263067603E-1,7.319910824E-2
1.656473750E1,-4.848175645E-1,9.255480766E-2,-1.014036313E-1
1.658473750E1,-5.985432267E-1,3.163758218E-1,-2.031737715E-1
1.660473750E1,-5.873032808E-1,3.140894473E-1,-1.153837144E-1
1.662473750E1,-4.757592976E-1,2.524269819E-1,-1.654048562E-1
1.664473750E1,-3.536909819E-1,2.738945186E-1,-2.748893499E-1
1.666473750E1,-2.941578031E-1,3.877947032E-1,-3.582113683E-1
1.668473750E1,-2.691821158E-1,4.327194691E-1,-3.581590056E-1
1.670473750E1,-2.480811030E-1,3.494323790E-1,-1.522799730E-1
1.672473750E1,-3.177022934E-1,3.137403727E-1,-1.329940856E-1
1.674473750E1,-3.715980351E-1,3.437600434E-1,-2.834763825E-1
1.676473750E1,-9.896016680E-3,5.938482881E-1,-5.456248522E-1
1.678473750E1,-2.321811467E-1,2.177123725E-1,8.855800331E-2
1.680473750E1,-3.526612222E-1,7.805112749E-2,2.060186714E-1
1.682473750E1,-4.651128054E-1,3.100228310E-1,5.939355493E-2
1.684473750E1,-6.737319827E-1,2.009048462E-1,-2.952747941E-1
1.686473750E1,-5.546656251E-1,1.168497950E-1,-4.175700247E-1
1.688473750E1,-3.481233716E-1,2.120575123E-2,-2.423738688E-1
1.690473750E1,-2.662150562E-1,-1.223475765E-2,-4.309218004E-2
1.692473750E1,-3.194825053E-1,1.694191098E-1,-4.363323096E-4
1.694473750E1,-2.977008224E-1,5.392892957E-1,-1.505695581E-1
1.696473750E1,-2.460739762E-1,5.129173398E-1,-1.955816001E-1
1.698473750E1,-1.432042718E-1,2.113070190E-1,3.265510872E-2
1.700473750E1,-2.122844011E-1,-1.334478706E-1,9.707520902E-2
1.702473750E1,-4.121944010E-1,-2.455329150E-1,-2.210634053E-1
1.704473750E1,-5.632875562E-1,-3.915820718E-1,-1.819680333E-1
1.706473750E1,-5.321857929E-1,-4.838576317E-1,-6.051056460E-2
1.708473750E1,-4.307123423E-1,-2.034530342E-1,3.338814899E-2
1.710473750E1,-4.745026529E-1,-6.503096968E-2,4.057890549E-2
1.712473750E1,-5.002462864E-1,-3.552268744E-1,2.052507177E-2
1.714473750E1,-4.046545923E-1,-2.140995413E-1,-3.209660575E-2
1.716473750E1,-1.781457514E-1,1.118057892E-1,-5.824163556E-2
1.718473750E1,4.328416660E-3,3.148224950E-1,-6.710790843E-2
1.720473750E1,1.627694070E-1,2.818183005E-1,-7.401940972E-2
1.722473750E1,2.750115395E-1,1.498365104E-1,2.898991853E-2
1.724473750E1,2.539454103E-1,3.193952516E-2,-1.719149388E-2
1.726473750E1,2.869670391E-1,1.548106968E-1,-1.122595742E-1
1.728473750E1,6.173578501E-1,5.914746523E-1,-2.439446747E-1
1.730473750E1,9.045518041E-1,9.033126235E-1,-2.715034187E-1
1.732473750E1,1.123852372E0,8.410043716E-1,-2.013935447E-1
1.734473750E1,1.251139283E0,6.862285733E-1,4.174827412E-2
1.736473750E1,1.131688952E0,5.145928860E-1,-4.991641734E-3
1.738473750E1,9.802641869E-1,3.504272103E-1,-3.179466426E-1
1.740473750E1,6.293657422E-2,-1.239148855E0,-4.622679055E-1
1.742473750E1,-4.976457357E-1,-6.983935237E-1,-6.170088053E-1
1.744473750E1,-5.583133698E-1,-9.277821183E-1,-7.928681970E-1
1.746473750E1,-2.711194456E-1,-3.380179107E-1,-4.737696350E-1
1.748473750E1,7.374016196E-2,4.792674258E-2,-2.479414791E-1
1.750473750E1,1.503426582E-1,1.996656694E-2,-4.261919558E-1
1.752473750E1,-6.928957254E-2,-9.224065393E-2,-6.233966947E-1
1.754473750E1,-2.315702885E-1,-3.071779609E-1,-4.469264746E-1
1.756473750E1,-3.675488830E-1,-2.978404462E-1,-2.057568580E-1
1.758473750E1,-3.576005101E-1,2.657438219E-1,-9.670869261E-2
1.760473750E1,4.070980549E-1,6.043202281E-1,-5.770058557E-2
1.762473750E1,7.806683183E-1,9.000663161E-1,1.432915311E-2
1.764473750E1,8.497135639E-1,1.110832214E0,-6.492624991E-3
1.766473750E1,6.368182898E-1,1.103274941E0,3.401646763E-2
1.768473750E1,2.369284481E-1,7.675434351E-1,1.175130159E-1
1.770473750E1,-3.082600534E-1,1.465552896E-1,2.345722541E-2
1.772473750E1,-6.735923886E-1,-4.184252322E-1,-4.803146049E-2
1.774473750E1,-5.944067836E-1,-2.824989855E-1,-2.461612374E-1
1.776473750E1,-4.690746963E-1,-8.823512197E-1,-2.165080905E-1
1.778473750E1,-1.216250181E0,-1.473581433E0,5.867971182E-1
1.780473750E1,-1.637520313E0,-1.698554456E-1,8.837649226E-1
1.782473750E1,-9.121439457E-1,-1.126959100E-1,1.098841786E0
1.784473750E1,-1.840449721E-1,-2.761808932E-1,1.390084982E0
1.786473750E1,2.625847757E-1,4.212003052E-1,1.606086850E0
1.788473750E1,5.529377460E-1,8.831365705E-1,1.703319192E0
1.790473750E1,5.255535245E-1,9.087755084E-1,1.668604612E0
1.792473750E1,1.775348932E-1,2.334203273E-1,1.778490543E0
1.794473750E1,-2.187595665E-1,-4.982216954E-1,1.932079434E0
1.796473750E1,-6.199060678E-1,-6.569244862E-1,1.609071374E0
1.798473750E1,-8.515287042E-1,-3.962071836E-1,9.683959484E-1
1.800473750E1,-6.502224207E-1,-1.064127237E-1,4.243418872E-1
1.802473750E1,-2.044304162E-1,-7.302457839E-2,1.773429066E-1
1.804473750E1,-9.594074637E-2,-1.352455616E-1,9.272934496E-2
1.806473750E1,-4.098033011E-1,-1.802576035E-1,6.475171447E-2
1.808473750E1,-6.124011278E-1,-2.423913330E-1,1.674119830E-1
1.810473750E1,-6.693337560E-1,-3.580368459E-1,1.627170444E-1
1.812473750E1,-7.690793276E-1,-5.519952774E-1,-1.091703475E-1
1.814473750E1,-9.789202809E-1,-8.085063100E-1,-4.053352773E-1
1.816473750E1,-1.135581017E0,-7.815060616E-1,-3.540225923E-1
1.818473750E1,-1.196109056E0,-6.148620248E-1,-1.622632593E-1
1.820473750E1,-1.185532331E0,-4.585852623E-1,-7.202973962E-2
1.822473750E1,-1.720248818E0,5.160763860E-1,-8.885296583E-1
1.824473750E1,-2.009833813E0,5.298121572E-1,-1.654938698E0
1.826473750E1,-3.130247891E-1,4.050909355E-2,4.500156939E-1
1.828473750E1,4.925319254E-1,7.175571918E-1,1.319625974E0
1.830473750E1,4.447098821E-2,6.001489162E-1,8.892976046E-1
1.832473750E1,-1.757022887E-1,5.754001737E-1,4.891808927E-1
1.834473750E1,-2.028596252E-1,7.855028510E-1,6.817779541E-1
1.836473750E1,6.721262634E-2,9.794263840E-1,9.161581993E-1
1.838473750E1,-2.029643357E-1,1.309695125E0,6.378480196E-1
1.840473750E1,-4.681496620E-1,7.695680261E-1,4.668232203E-1
1.842473750E1,1.302190125E-1,-2.498438805E-1,6.755645871E-1
1.844473750E1,-2.050587386E-1,-1.724036187E-1,6.265557408E-1
1.846473750E1,-5.310513377E-1,-4.422838986E-1,3.194476068E-1
1.848473750E1,-4.586725235E-1,-9.156346321E-1,1.403070241E-1
1.850473750E1,-4.405734539E-1,-9.549918175E-1,8.197811246E-2
1.852473750E1,-4.069758654E-1,-1.006810665E0,3.294832408E-1
1.854473750E1,-4.720417559E-1,-7.853108644E-1,3.256784379E-1
1.856473750E1,-8.424878716E-1,-5.670050979E-1,3.995058686E-2
1.858473750E1,-6.487737894E-1,-4.307123423E-1,1.908517480E-1
1.860473750E1,-2.212204784E-1,-1.888795346E-1,7.089527249E-1
1.862473750E1,6.363470107E-2,-1.179493517E-1,1.114061117E0
1.864473750E1,1.879719645E-2,-8.332201838E-2,1.072644472E0
1.866473750E1,2.302089334E-2,-2.915223539E-1,1.177591085E0
1.868473750E1,7.813838869E-2,-6.641152501E-1,1.355911374E0
1.870473750E1,1.651081443E-1,-8.404458165E-1,1.260424376E0
1.872473750E1,5.817705989E-1,-6.572909951E-1,1.154657483E0
1.874473750E1,8.190830350E-1,-5.777738094E-1,1.138966918E0
1.876473750E1,6.540446877E-1,-7.392342091E-1,8.466417789E-1
1.878473750E1,3.658384681E-1,-1.069415569E0,6.013008356E-1
1.880473750E1,1.096764877E-1,-6.707300544E-1,6.845879555E-1
1.882473750E1,9.843657166E-2,-5.657310486E-1,5.433384180E-1
1.884473750E1,9.985028952E-2,-1.027911663E0,4.064522684E-1
1.886473750E1,-2.616772056E-1,-1.261209846E0,2.093522400E-1
1.888473750E1,-2.627069652E-1,-1.122822642E0,3.622430861E-1
1.890473750E1,-3.274761140E-1,-1.241260648E0,6.750235558E-1
1.892473750E1,-4.739441574E-1,-1.179755330E0,9.338034987E-1
1.894473750E1,-6.325422525E-1,-1.062050343E0,1.290688396E0
1.896473750E1,-6.097482443E-1,-1.681380391E0,1.418463945E0
1.898473750E1,-5.378057361E-1,-1.270407677E0,1.248713255E0
1.900473750E1,-8.492597342E-1,-8.239873648E-1,5.645791292E-1
1.902473750E1,-1.018277407E0,-8.440761566E-1,1.004960611E-1
1.904473750E1,-1.032990575E0,-3.898716569E-1,5.560619012E-2
1.906473750E1,-1.807637453E0,-1.839576960E-1,1.519832760E-1
1.908473750E1,-1.969150305E0,-4.248829484E-1,4.641354084E-1
1.910473750E1,-1.412878990E0,-8.783195019E-1,8.440935612E-1
1.912473750E1,-1.177137256E0,-1.177242041E0,6.442359090E-1
1.914473750E1,-1.442811370E0,-1.266480684E0,3.644247353E-2
1.916473750E1,-1.785035491E0,-1.142806649E0,-1.360309571E-1
1.918473750E1,-1.921223521E0,-7.396879792E-1,1.558579039E-2
1.920473750E1,-1.593119025E0,-6.634345651E-1,2.417106479E-1
1.922473750E1,-1.002394915E0,-1.159003377E0,-2.696882784E-1
1.924473750E1,-4.200483859E-1,-5.267578363E-1,-8.033226728E-1
1.926473750E1,-2.521302700E-1,-4.700520635E-1,-1.091616154E0
1.928473750E1,-3.923325539E-1,-4.769635797E-1,-8.308116198E-1
1.930473750E1,-9.405928254E-1,-3.956661522E-1,-9.587093443E-2
1.932473750E1,-1.212026477E0,-4.202403724E-1,1.932253987E-1
1.934473750E1,-1.092610955E0,-6.782000661E-1,-2.972295694E-2
1.936473750E1,-9.961117506E-1,-6.156998277E-1,-2.059488446E-1
1.938473750E1,-1.141759515E0,-6.269222498E-1,-6.719517522E-3
1.940473750E1,-1.576887488E0,-8.130616546E-1,8.461356163E-2
1.942473750E1,-1.960196733E0,-1.137413621E0,2.294235229E-1
1.944473750E1,-1.965624690E0,-8.910080194E-1,1.557880938E-1
1.946473750E1,-1.808475256E0,-8.907637000E-1,8.210028708E-2
1.948473750E1,-1.678971887E0,-1.425113678E0,9.192649275E-2
1.950473750E1,-1.845528603E0,-1.659232140E0,-1.548106968E-1
1.952473750E1,-2.270830393E0,-1.123101950E0,-1.099033833E0
1.954473750E1,-2.799350977E0,-5.294979811E-1,-2.075091839E0
1.956473750E1,-3.345185280E0,-6.322455406E-1,-2.624329329E0
1.958473750E1,-3.474566460E0,-1.793989062E0,-2.802108765E0
1.960473750E1,-3.209259033E0,-2.109439850E0,-3.347768307E0
1.962473750E1,-3.205157518E0,-2.478542089E0,-3.800716162E0
1.964473750E1,-3.289299965E0,-3.792809963E0,-4.086688519E0
1.966473750E1,-3.110054493E0,-3.288636684E0,-4.207639694E0
1.968473750E1,-2.089420795E0,-1.682671905E0,-3.895417690E0
1.970473750E1,-4.503647685E-1,6.658431143E-2,-3.213744640E0
1.972473750E1,2.089333683E-1,1.002866179E-1,-2.930268288E0
1.974473750E1,7.630056143E-1,1.024211526E0,-3.486609221E0
1.976473750E1,1.261122584E0,1.129437447E0,-3.644456863E0
1.978473750E1,1.917279124E0,2.031615496E0,-3.434266806E0
1.980473750E1,2.441541195E0,3.314013720E0,-3.250989914E0
1.982473750E1,2.618726969E0,3.494149208E0,-3.046227932E0
1.984473750E1,2.425449133E0,3.425121307E0,-2.871014357E0
1.986473750E1,3.058794260E0,3.862762690E0,-2.841029406E0
1.988473750E1,3.760660887E0,3.439764738E0,-3.287729025E0
1.990473750E1,3.644404650E0,2.398274422E0,-3.778690100E0
1.992473750E1,3.676536083E0,2.676252842E0,-3.835849762E0
1.994473750E1,4.724815845E0,2.255105019E0,-4.393534660E0
1.996473750E1,4.825049877E0,1.224732399E0,-4.575380802E0
1.998473750E1,4.084751129E0,1.094408751E0,-2.889776468E0
2.000473750E1,2.332353354E0,1.562034726E0,-8.064991832E-1
2.002473750E1,4.022111297E-1,1.394029379E0,6.841690745E-3
2.004473750E1,-3.506715596E-1,6.361201406E-1,1.984090358E-1
2.006473750E1,-4.193328023E-1,-1.231626511E0,6.234490871E-1
2.008473750E1,-1.644449234E-1,-2.326297045E0,2.699151635E-1
2.010473750E1,8.022056818E-1,-3.009698153E0,-7.397927046E-1
2.012473750E1,1.092541218E0,-3.972578764E0,-1.066431046E0
2.014473750E1,6.511125565E-1,-4.279477596E0,-4.684289098E-1
2.016473750E1,1.963669956E-1,-3.599916220E0,4.980297089E-1
2.018473750E1,4.390375614E-1,-3.094852686E0,9.792343974E-1
2.020473750E1,3.976470947E0,-3.171088696E-1,1.902408838E0
2.022473750E1,6.151727200E0,4.444131851E-1,3.981706858E0
2.024473750E1,5.834461212E0,2.465399742E0,5.040284157E0
2.026473750E1,4.270925522E0,1.385163069E0,4.089044571E0
2.028473750E1,2.794429302E0,-9.442231618E-3,2.556261539E0
2.030473750E1,2.853019953E0,-1.713843465E0,2.069663763E0
2.032473750E1,2.484004974E0,-1.051334023E0,1.862702608E0
2.034473750E1,6.631727815E-1,-1.621061862E-1,2.282384396E0
2.036473750E1,-2.364921197E-2,7.527605295E-1,1.370833993E0
2.038473750E1,1.372003257E-1,-4.863185287E-1,3.098308444E-1
2.040473750E1,-2.008873969E-2,-1.284213215E-1,-9.672614932E-2
2.042473750E1,-1.190105081E0,3.420845419E-2,-7.495316267E-1
2.044473750E1,-1.977440596E0,2.173109502E-1,-1.181954384E0
2.046473750E1,-2.476988792E0,6.793170571E-1,-1.309642673E0
2.048473750E1,-2.932781458E0,7.264583707E-1,-1.895532250E0
2.050473750E1,-2.630821943E0,2.444682717E-1,-1.793570161E0
2.052473750E1,-1.665689826E0,-2.354100049E-1,-1.055383086E0
2.054473750E1,-8.038462996E-1,-8.546528220E-1,-7.270517945E-1
2.056473750E1,-4.795292020E-1,-1.446703434E0,-1.587150097E0
2.058473750E1,-2.134014070E-1,-8.195193410E-1,-2.450285196E0
2.060473750E1,-1.518436372E-1,-3.041585386E-1,-2.203268766E0
2.062473750E1,-1.218937933E-1,3.907966614E-1,-1.743007898E0
2.064473750E1,1.237490773E0,3.918438554E-1,-1.137116909E0
2.066473750E1,2.221228123E0,9.467713237E-1,-1.007299304E0
2.068473750E1,1.851200938E0,8.860338330E-1,-1.070916533E0
2.070473750E1,2.296678722E-1,1.858967662E0,-2.537185252E-1
2.072473750E1,-5.857325196E-1,2.177001476E0,4.089306295E-2
2.074473750E1,-8.620180935E-2,7.997971177E-1,-5.798158050E-1
2.076473750E1,8.051203936E-2,1.194503307E-1,-8.863130808E-1
2.078473750E1,-5.619960278E-2,-3.075619340E-1,-1.120640993E0
2.080473750E1,-2.241526395E-1,-8.613723516E-1,-1.579889536E0
2.082473750E1,-4.211130440E-1,-6.193649769E-1,-1.929531336E0
2.084473750E1,-7.413285971E-1,3.596599996E-1,-1.800411820E0
2.086473750E1,-7.565304041E-1,6.955485940E-1,-1.711225510E0
2.088473750E1,-5.845456719E-1,-1.692620367E-1,-1.474715948E0
2.090473750E1,-3.053802550E-1,-1.463458538E-1,-1.228694320E0
2.092473750E1,-1.531002820E-1,3.150668442E-1,-1.019621372E0
2.094473750E1,-7.609635592E-2,3.351032138E-1,-7.986277342E-1
2.096473750E1,-2.670702934E-1,1.964542568E-1,-9.328959584E-1
2.098473750E1,-5.216265321E-1,-5.514717102E-1,-1.044579506E0
2.100473750E1,-4.173955023E-1,-8.647757173E-1,-7.337363958E-1
2.102473750E1,-2.054427117E-1,-1.717403978E-1,-4.059635699E-1
2.104473750E1,-3.899065405E-2,-1.926494390E-1,-3.583684564E-1
2.106473750E1,2.042035200E-2,-6.199758649E-1,-5.870240331E-1
2.108473750E1,1.973967440E-2,-8.847248554E-1,-5.604426861E-1
2.110473750E1,-1.538856775E-1,-9.399645329E-1,-5.730788708E-1
2.112473750E1,-4.110774100E-1,-1.671676338E-1,-3.938684464E-1
2.114473750E1,-5.026199222E-1,-2.138901055E-1,-4.521973431E-1
2.116473750E1,-2.124240249E-1,-1.700823307E-1,-7.642273307E-1
2.118473750E1,1.734857261E-2,-7.042229176E-1,-8.336390853E-1
2.120473750E1,2.731440216E-2,-4.975759089E-1,-8.143531680E-1
2.122473750E1,-1.300270297E-2,2.510830760E-1,-3.438124061E-1
2.124473750E1,1.197295859E-1,4.260174036E-1,9.548696131E-2
2.126473750E1,5.094616115E-2,1.474454105E-1,5.671796203E-1
2.128473750E1,-4.332605302E-1,7.233691812E-1,9.038187265E-1
2.130473750E1,-1.071003795E0,1.478922248E0,9.970891476E-1
2.132473750E1,-1.226390481E0,1.545715928E0,1.031576872E0
2.134473750E1,-1.078648329E0,1.100971103E0,1.283113718E0
2.136473750E1,-3.900636435E-1,6.381796598E-1,1.310689926E0
2.138473750E1,1.436929554E-1,7.764795423E-1,1.779956579E0
2.140473750E1,3.352079391E-1,5.034402013E-1,2.416984320E0
2.142473750E1,1.769938320E-1,2.203652710E-1,2.379459620E0
2.144473750E1,-1.955466866E-1,4.199087620E-1,2.018229008E0
2.146473750E1,-8.901178837E-3,8.555080295E-1,1.737527609E0
2.148473750E1,3.661002517E-1,1.010056973E0,1.960039616E0
2.150473750E1,-3.516314924E-1,8.906240463E-1,2.101917505E0
2.152473750E1,-4.594579339E-1,8.013330102E-1,2.139215231E0
2.154473750E1,1.752310619E-2,1.163715720E0,2.158762932E0
2.156473750E1,1.666440368E-1,8.502545953E-1,2.444106817E0
2.158473750E1,3.568325639E-1,5.826083422E-1,2.110242605E0
2.160473750E1,7.094065547E-1,7.479259372E-1,2.440755606E0
2.162473750E1,7.720638514E-1,9.617113471E-1,2.585426092E0
2.164473750E1,2.870543003E-1,4.742757678E-1,2.062630177E0
2.166473750E1,-1.871342063E-1,-1.162389293E-1,1.287878394E0
2.168473750E1,-2.735629082E-1,4.326671362E-2,8.934165835E-1
2.170473750E1,1.438151300E-1,7.892378569E-1,7.962017655E-1
2.172473750E1,6.979920864E-1,1.296849489E0,7.283957005E-1
2.174473750E1,7.902851105E-1,9.003978968E-1,1.743234843E-1
2.176473750E1,4.995656013E-1,5.284857154E-1,-1.555262953E-1
2.178473750E1,-9.267698042E-3,2.620786428E-1,-3.424161375E-1
2.180473750E1,-2.087762803E-1,8.850564808E-2,-5.702340007E-1
2.182473750E1,-2.228959948E-1,-3.539876640E-1,-8.892801404E-1
2.184473750E1,-3.231826127E-1,-7.732506394E-1,-1.338266134E0
2.186473750E1,-4.082150459E-1,-1.127953887E0,-1.909058571E0
2.188473750E1,-3.004584312E-1,-1.077758312E0,-2.296696186E0
2.190473750E1,-2.190737277E-1,-1.219862938E0,-1.997494459E0
2.192473750E1,-3.323456049E-1,-9.330006838E-1,-1.359506726E0
2.194473750E1,-1.138652787E-1,-8.719316125E-1,-1.215150595E0
2.196473750E1,5.024802685E-1,-1.318072677E0,-1.707333446E0
2.198473750E1,1.280600429E0,-1.640574574E0,-1.987301707E0
2.200473750E1,1.357918501E0,-2.953620553E-1,-4.299618602E-1
2.202473750E1,3.551745042E-2,6.740461588E-1,1.378304005E0
2.204473750E1,1.929461509E-1,3.037745655E-1,8.683885932E-1
2.206473750E1,8.984605670E-1,-1.379124284E0,-2.713987045E-2
2.208473750E1,9.855699539E-1,-1.729795814E0,-3.657337427E-1
2.210473750E1,7.380822897E-1,-1.503199697E0,-5.424134135E-1
2.212473750E1,5.629385114E-1,-1.363538504E0,-8.204094768E-1
2.214473750E1,2.767568529E-1,-1.141392946E0,-1.431065321E0
2.216473750E1,1.746900082E-1,-3.286105990E-1,-1.593712449E0
2.218473750E1,2.290221006E-1,8.122064471E-1,-1.091843128E0
2.220473750E1,5.030562282E-1,1.412320375E0,-5.357113481E-1
2.222473750E1,5.597445369E-1,8.007745147E-1,-5.402666926E-1
2.224473750E1,5.408251882E-1,-2.075196505E-1,-9.135925770E-1
2.226473750E1,4.448320568E-1,-9.989915490E-1,-1.154552698E0
2.228473750E1,3.295705318E-1,-1.113903999E0,-8.683012724E-1
2.230473750E1,2.530378401E-1,-4.830198586E-1,-5.698848963E-1
2.232473750E1,2.460041642E-1,-1.979028881E-1,-5.508084297E-1
2.234473750E1,2.110801190E-1,-3.232000768E-1,-6.834709048E-1
2.236473750E1,1.875530779E-1,-3.334451616E-1,-5.937784910E-1
2.238473750E1,2.323556840E-1,2.030865103E-1,-5.026199222E-1
2.240473750E1,2.721841037E-1,3.330262601E-1,-5.418549180E-1
2.242473750E1,2.082526833E-1,-1.485624313E-1,-5.979672670E-1
2.244473750E1,-1.307426095E-1,-6.431712508E-1,-6.807656884E-1
2.246473750E1,-5.026199222E-1,-5.781926513E-1,-8.003032804E-1
2.248473750E1,-5.256407857E-1,6.991788745E-2,-9.484468102E-1
2.250473750E1,-3.957184851E-1,8.417024612E-1,-1.099557400E0
2.252473750E1,-4.779409468E-1,5.607219338E-1,-9.767211676E-1
2.254473750E1,-5.021486878E-1,6.042329967E-2,-1.031838655E0
2.256473750E1,-4.290542901E-1,-4.563337862E-1,-1.684033275E0
2.258473750E1,-4.349884093E-1,-2.371902466E-1,-1.152301311E0
2.260473750E1,-5.458691716E-1,3.240552843E-1,-7.066838145E-1
2.262473750E1,-6.057688594E-1,5.480333567E-1,-7.944738865E-1
2.264473750E1,-4.514817595E-1,1.594009250E-1,-8.665385246E-1
2.266473750E1,-3.135483861E-1,-1.006007791E-1,-7.334571481E-1
2.268473750E1,-3.857701123E-1,9.986773878E-2,-6.203423738E-1
2.270473750E1,-2.543468177E-1,7.795338631E-1,-4.948531985E-1
2.272473750E1,5.166174471E-2,4.659680128E-1,-5.023057461E-1
2.274473750E1,1.403768361E-1,2.065073550E-1,-5.229181051E-1
2.276473750E1,-7.361798733E-2,1.108860016E0,-3.197617829E-1
2.278473750E1,1.219461560E-1,1.538036466E0,-6.410594285E-2
2.280473750E1,7.377157807E-1,4.110075831E-1,-3.766420484E-2
2.282473750E1,9.098227024E-1,1.134114936E-1,1.452288479E-1
2.284473750E1,7.809475660E-1,6.418274045E-1,4.154058099E-1
2.286473750E1,8.640601635E-1,8.208807111E-1,4.196295142E-1
2.288473750E1,8.440761566E-1,1.242150813E-1,1.927018017E-1
2.290473750E1,5.330933928E-1,-3.050486445E-1,-8.911651373E-2
2.292473750E1,1.662949771E-1,3.701843321E-2,-1.129577085E-1
2.294473750E1,-3.429571912E-2,5.432162881E-1,-3.575830460E-1
2.296473750E1,8.878489584E-2,1.594183743E-1,-7.305599451E-1
2.298473750E1,8.683013171E-2,-5.059884191E-1,-1.066658020E0
2.300473750E1,-1.267632693E-1,-8.552811146E-1,-1.253757238E0
2.302473750E1,-3.639011458E-2,-7.166845202E-1,-1.280530572E0
2.304473750E1,-8.361872286E-2,2.680127621E-1,-8.632572889E-1
2.306473750E1,-1.596452594E-1,7.752752304E-2,-7.542614937E-1
2.308473750E1,-5.754350498E-2,5.038765445E-2,-7.087084055E-1
2.310473750E1,-3.281916976E-1,5.161462426E-1,-7.226186395E-1
2.312473750E1,-2.651329637E-1,1.152789965E-1,-9.445372820E-1
2.314473750E1,-2.985560298E-1,-1.935221106E-1,-1.119419217E0
2.316473750E1,-4.316373765E-1,-9.096655995E-2,-9.667727947E-1
2.318473750E1,-6.681643724E-1,3.204773664E-1,-7.334396839E-1
2.320473750E1,-6.086835861E-1,1.749518067E-1,-5.871112943E-1
2.322473750E1,-3.706206679E-1,-1.075471863E-1,-4.449716806E-1
2.324473750E1,-2.956064045E-1,-2.024756521E-1,-2.387610376E-1
2.326473750E1,-2.805616856E-1,-1.007404029E-1,-3.344050795E-2
2.328473750E1,-3.518060148E-1,-1.301841140E-1,7.717845589E-2
2.330473750E1,-3.284011483E-1,-1.606226563E-1,1.539031267E-1
2.332473750E1,-2.114640921E-1,-2.746275663E-1,1.022239327E-1
2.334473750E1,-3.123441339E-1,-2.276781946E-1,5.380849913E-2
2.336473750E1,-4.893030524E-1,-4.723559022E-1,4.862487316E-2
2.338473750E1,-5.872684121E-1,-4.345171750E-1,7.421139628E-2
2.340473750E1,-5.192528963E-1,-2.756398618E-1,-2.216568217E-3
2.342473750E1,-4.310265183E-1,5.253441166E-3,-2.002590746E-1
2.344473750E1,-4.310265183E-1,5.253441166E-3,-2.002590746E-1
2.346473750E1,-3.787015378E-1,1.068141498E-2,-3.407057226E-1
2.348473750E1,-2.379581928E-1,-7.127925009E-2,-2.909114659E-1
2.350473750E1,-8.487536013E-2,-8.901178837E-3,-7.745771110E-2
2.352473750E1,-4.956734926E-2,1.126959100E-1,1.831897646E-1
2.354473750E1,-3.298672289E-2,2.061233856E-2,1.447576135E-1
2.356473750E1,-5.934119597E-2,8.951793611E-2,-4.502949491E-2
2.358473750E1,-1.490511149E-1,-1.025380939E-1,-2.228261828E-1
2.360473750E1,-3.534466326E-1,-3.856828511E-1,-2.937214673E-1
2.362473750E1,-5.847551227E-1,-2.675764263E-1,-2.104168981E-1
2.364473750E1,-4.554262161E-1,-4.959352911E-1,-2.166302651E-1
2.366473750E1,-4.398055077E-1,-3.128153682E-1,-4.093146026E-1
2.368473750E1,-4.176223874E-1,-5.053600669E-1,-6.085788608E-1
2.370473750E1,-4.515166879E-1,-3.345097899E-1,-7.215540409E-1
2.372473750E1,-4.412541389E-1,3.947585821E-1,-6.852511764E-1
2.374473750E1,-1.506219208E-1,6.628934741E-1,-6.115459204E-1
2.376473750E1,2.658485472E-1,3.380702734E-1,-3.485946059E-1
2.378473750E1,1.145634130E-1,4.440990388E-1,2.024058253E-1
2.380473750E1,-4.598069787E-1,1.795594692E-1,5.471083522E-1
2.382473750E1,-4.583409131E-1,-5.897118449E-1,8.677253127E-1
2.384473750E1,-4.805414975E-1,1.752310544E-1,8.752477169E-1
2.386473750E1,-7.524114102E-2,7.545582056E-1,5.836555362E-1
2.388473750E1,3.080157042E-1,9.842086434E-1,2.929884195E-1
2.390473750E1,-6.527531147E-2,7.194770575E-1,-2.296853252E-2
2.392473750E1,-3.872187436E-1,1.536064297E-1,-3.241425455E-1
2.394473750E1,-2.763903439E-1,3.012961745E-1,-8.849168420E-1
2.396473750E1,-2.401398569E-1,3.155206144E-1,-1.129315257E0
2.398473750E1,-1.184729487E-1,2.100154608E-1,-1.142998695E0
2.400473750E1,-5.248204991E-2,5.291140079E-1,-1.000021338E0
2.402473750E1,-3.466747403E-1,1.301073194E0,-8.942892551E-1
2.404473750E1,6.085963175E-2,7.861661315E-1,-7.212224007E-1
2.406473750E1,-5.565854907E-2,2.636668980E-1,-9.265254736E-1
2.408473750E1,1.168847010E-1,2.924299240E-1,-6.470459104E-1
2.410473750E1,9.117600322E-2,1.158200502E-1,-4.506440088E-2
2.412473750E1,3.071779385E-3,1.000422761E-1,3.893829510E-2
2.414473750E1,1.446877979E-2,9.988519549E-2,2.012364566E-2
2.416473750E1,1.816887781E-2,4.335397854E-2,4.068362340E-2
2.418473750E1,1.000073645E-2,2.621484548E-2,3.820525855E-2
2.420473750E1,1.972222002E-3,1.199041214E-2,2.101376466E-2
2.422473750E1,6.963863503E-3,1.895427518E-2,1.132718660E-2
2.424473750E1,2.546435408E-2,3.967133537E-2,3.752457909E-3
2.426473750E1,-6.684611086E-3,-1.434660610E-2,1.411971357E-2
2.428473750E1,-4.834562074E-3,1.823868975E-2,1.153662615E-2
2.430473750E1,-3.176499158E-3,-2.384119667E-2,2.656391077E-2
2.432473750E1,-1.675515994E-2,-2.349213138E-2,2.333505265E-2
2.434473750E1,-2.679080330E-2,-1.933824830E-2,1.989675313E-2
2.436473750E1,-2.740166895E-2,-1.130973361E-2,1.537635084E-2
2.438473750E1,-1.504473854E-2,3.054326167E-3,2.069960535E-2
2.440473750E1,-5.759586347E-4,1.748819835E-2,1.689478755E-2
2.442473750E1,-6.422811653E-3,-3.431317210E-2,1.651081443E-2
2.444473750E1,-1.972222002E-3,-1.237438433E-2,1.483529899E-2
2.446473750E1,3.665191471E-4,-2.111848444E-2,1.750565320E-2
2.448473750E1,-8.168140426E-3,-2.441715635E-2,2.244493365E-2
2.450473750E1,-1.357866172E-2,-3.204424679E-2,1.546361670E-2
2.452473750E1,-7.435102481E-3,-2.900737152E-2,1.781981252E-2
2.454473750E1,6.597344764E-3,-4.221951589E-2,-1.684242673E-2
2.456473750E1,-2.617993741E-4,1.158898603E-2,-3.616322204E-2
2.458473750E1,2.511528693E-2,6.257005036E-2,-2.062979154E-2
2.460473750E1,3.057816811E-2,6.778858602E-2,-1.106538717E-2
2.462473750E1,1.544616371E-2,4.794419557E-2,2.338741207E-3
2.464473750E1,1.715658605E-2,9.965829551E-3,7.871435024E-3
2.466473750E1,1.483529806E-1,1.089259982E-1,-1.014036313E-2
2.468473750E1,-1.174781099E-1,-3.926990926E-2,7.091272622E-2
2.470473750E1,-1.518611014E-1,4.031710327E-3,7.072073966E-2
2.472473750E1,-8.162904531E-2,9.005898610E-3,2.190213650E-1
2.474473750E1,7.759733498E-2,1.406386346E-1,4.499109685E-1
2.476473750E1,2.290570140E-1,4.779409468E-1,6.282312870E-1
2.478473750E1,6.056292355E-2,4.607669078E-3,6.259448528E-1
2.480473750E1,-1.516167521E-1,-5.398128629E-1,3.777590692E-1
2.482473750E1,-3.065845370E-1,-9.301208854E-1,4.125609398E-1
2.484473750E1,-4.561417997E-1,-1.174641490E0,5.249601603E-1
2.486473750E1,-5.608964562E-1,-1.053655267E0,6.810624003E-1
2.488473750E1,-3.710570037E-1,-8.088902831E-1,9.479232430E-1
2.490473750E1,-1.733810008E-1,-2.519382834E-1,1.178079844E0
2.492473750E1,-6.030112505E-2,-1.754055917E-1,1.174781084E0
2.494473750E1,-1.911484599E-1,-3.824714422E-1,7.024950385E-1
2.496473750E1,-1.851445287E-1,-2.812423408E-1,5.536184460E-2
2.498473750E1,-2.535788715E-1,-5.140867233E-1,-1.034980267E-1
2.500473750E1,-2.910685539E-1,-7.327066660E-1,-1.954070628E-1
2.502473750E1,-1.550375968E-1,-3.610039055E-1,-3.609690070E-1
2.504473750E1,-4.003785178E-2,-1.098859310E-1,-5.612804294E-1
2.506473750E1,2.822197415E-2,1.102349982E-1,-6.552838683E-1
2.508473750E1,3.752457723E-2,1.503077596E-1,-5.605648756E-1
2.510473750E1,1.048244759E-1,2.643650174E-1,-7.626216412E-1
2.512473750E1,5.059709400E-2,1.843591332E-1,-5.237383842E-1
2.514473750E1,8.487536013E-2,2.668957412E-1,-3.208264112E-1
2.516473750E1,9.101892263E-2,3.566754758E-1,-4.065569937E-1
2.518473750E1,9.121090919E-2,2.306103557E-1,-4.594579339E-1
2.520473750E1,6.085963175E-2,2.703166008E-1,-6.092770100E-1
2.522473750E1,1.090307161E-1,3.028320670E-1,-6.665063500E-1
2.524473750E1,8.805186301E-2,1.972047538E-1,-4.268726408E-1
2.526473750E1,4.092797264E-2,9.047786891E-2,-1.660157144E-1
2.528473750E1,-6.208136305E-2,-1.141968891E-1,-2.581341937E-2
2.530473750E1,-1.064650831E-3,1.490511186E-2,6.457718089E-3
2.532473750E1,-4.386012256E-2,-3.558726236E-2,3.996803891E-3
2.534473750E1,-2.759365551E-2,-2.487094142E-2,3.193952609E-3
2.536473750E1,-6.300638430E-3,-3.577924892E-2,-7.487462368E-3
2.538473750E1,-5.166174378E-3,-4.612905160E-2,-3.401646763E-2
2.540473750E1,-9.250245057E-3,-5.717698485E-2,5.129522830E-2
2.542473750E1,1.422443334E-2,-5.113814492E-3,-2.696533687E-2
2.544473750E1,5.166174378E-3,-6.468190253E-2,5.480333697E-3
2.546473750E1,-3.282964230E-2,-1.015607119E-1,4.380776547E-3
2.548473750E1,-2.403318323E-2,-5.091125518E-2,-3.176499158E-3
2.550473750E1,4.625122529E-3,-7.766715251E-3,1.204277156E-3
2.552473750E1,1.876228862E-2,1.588249579E-2,-1.902408898E-3
2.554473750E1,3.359758854E-2,6.998769939E-2,-5.515240598E-3
2.556473750E1,2.549926005E-2,7.503170520E-2,-4.480260238E-2
2.558473750E1,2.694788389E-2,9.484118968E-2,-3.096214123E-2
2.560473750E1,2.946115844E-2,1.615825742E-1,3.490658419E-4
2.562473750E1,2.611012571E-2,2.254790813E-1,2.408554312E-3
2.564473750E1,7.079055160E-2,2.237337530E-1,3.406882659E-2
2.566473750E1,6.983062625E-2,2.961125672E-1,4.080579802E-2
2.568473750E1,1.318770796E-1,3.842865825E-1,2.085668407E-2
2.570473750E1,9.864600748E-2,4.763352573E-1,1.813396998E-2
2.572473750E1,9.599310905E-2,3.210358620E-1,6.002187356E-2
2.574473750E1,4.769985005E-2,2.221455127E-1,7.026695460E-2
2.576473750E1,1.457349956E-2,1.282642484E-1,4.454080388E-2
2.578473750E1,1.209513191E-2,3.878121451E-2,2.888519876E-2
2.580473750E1,-1.047197497E-3,1.066396199E-2,2.066469751E-2
2.582473750E1,-1.762782573E-3,2.656391077E-2,2.146754880E-3
2.584473750E1,2.436479554E-2,7.791149616E-2,-4.415683076E-2
2.586473750E1,3.900810704E-2,8.696975559E-2,-3.525565192E-2
2.588473750E1,1.687209755E-1,4.941201508E-1,-9.349729121E-2
2.590473750E1,8.087855577E-2,2.680651248E-1,-7.075564563E-2
2.592473750E1,8.822639287E-2,2.339439392E-1,-3.961897269E-2
2.594473750E1,9.883799404E-2,2.110277563E-1,-8.840092272E-2
2.596473750E1,1.055575162E-1,2.685887218E-1,-1.519483626E-1
2.598473750E1,8.517206460E-2,2.037671953E-1,-1.805543154E-1
2.600473750E1,4.679227620E-2,1.371654272E-1,-2.098583877E-1
2.602473750E1,4.817108810E-2,1.961750090E-1,-2.587276101E-1
2.604473750E1,3.811798990E-2,2.890788913E-1,-2.542770207E-1
2.606473750E1,-4.649557173E-2,2.435257882E-1,-2.369109988E-1
2.608473750E1,-6.606071442E-2,7.463027537E-2,-1.768891215E-1
2.610473750E1,-2.583087189E-3,8.147197217E-2,-1.979203336E-2
2.612473750E1,1.566258520E-1,3.226939142E-1,9.255480766E-2
2.614473750E1,2.842617631E-1,4.350407720E-1,2.107310593E-1
2.616473750E1,2.719746530E-1,5.782799125E-1,2.536137998E-1
2.618473750E1,1.919862181E-1,6.143384576E-1,2.697231770E-1
2.620473750E1,8.049458265E-2,6.649704576E-1,2.416931987E-1
2.622473750E1,2.036799304E-2,7.104188204E-1,1.821251065E-1
2.624473750E1,5.173156038E-2,7.454301119E-1,1.574636102E-1
2.626473750E1,4.649557173E-2,8.113686442E-1,1.770636588E-1
2.628473750E1,4.796164855E-2,9.837199450E-1,2.570869923E-1
2.630473750E1,8.321730047E-2,1.076536536E0,3.528532088E-1
2.632473750E1,1.054702476E-1,1.048855662E0,4.055970609E-1
2.634473750E1,8.642870188E-2,9.589362741E-1,3.500432372E-1
2.636473750E1,9.250245057E-4,9.119519591E-1,2.222676724E-1
2.638473750E1,2.408554312E-3,1.032763720E0,1.625774205E-1
2.640473750E1,2.785545401E-2,1.065593362E0,1.510582417E-1
2.642473750E1,4.763003439E-2,9.808401465E-1,1.301317513E-1
2.644473750E1,8.162904531E-2,9.578366876E-1,9.859365225E-2
2.646473750E1,6.216862798E-2,8.602727652E-1,6.120869517E-2
2.648473750E1,4.913101718E-2,7.511722445E-1,2.516764775E-2
2.650473750E1,5.958554149E-2,7.985579371E-1,3.741985932E-2
2.652473750E1,1.184031367E-1,7.177841067E-1,6.775368005E-2
2.654473750E1,1.733286530E-1,5.569869280E-1,1.303586364E-1
2.656473750E1,1.966287941E-1,5.261818767E-1,9.065239877E-2
2.658473750E1,1.804495901E-1,5.037369132E-1,5.763076991E-2
2.660473750E1,1.665916741E-1,4.325624108E-1,4.499458894E-2
2.662473750E1,1.830501258E-1,4.053352773E-1,3.541272879E-2
2.664473750E1,1.743060350E-1,3.862239122E-1,5.263913050E-2
2.666473750E1,1.543918252E-1,3.062005639E-1,6.803293526E-2
2.668473750E1,1.881115884E-1,1.775348932E-1,8.735372871E-2
2.670473750E1,2.164557278E-1,9.649925679E-2,6.190682948E-2
2.672473750E1,1.914102584E-1,1.994387656E-1,-1.219985168E-2
2.674473750E1,1.301841140E-1,2.257583439E-1,-7.513642311E-2
2.676473750E1,7.538077235E-2,1.880243123E-1,-9.583602846E-2
2.678473750E1,9.005898982E-2,1.346521527E-1,-1.128355339E-1
2.680473750E1,1.181762442E-1,3.344050795E-2,-1.541998386E-1
2.682473750E1,1.475850344E-1,-1.382300723E-2,-2.011666447E-1
2.684473750E1,1.729970276E-1,-2.036799304E-2,-2.346420586E-1
2.686473750E1,1.840449721E-1,-4.309218004E-2,-2.416059226E-1
2.688473750E1,2.162637413E-1,-1.283166111E-1,-2.643301189E-1
2.690473750E1,2.109579444E-1,-2.287603021E-1,-3.130422533E-1
2.692473750E1,2.247111350E-1,-2.630385756E-1,-3.647912741E-1
2.694473750E1,2.524793148E-1,-2.755351365E-1,-4.081801474E-1
2.696473750E1,2.514844835E-1,-3.015928864E-1,-4.512025118E-1
2.698473750E1,2.406110913E-1,-3.499036133E-1,-4.873308241E-1
2.700473750E1,2.281668931E-1,-3.867126107E-1,-5.165302157E-1
2.702473750E1,2.402445674E-1,-3.484026194E-1,-5.505117774E-1
2.704473750E1,2.195275128E-1,-2.482207268E-1,-5.964139104E-1
2.706473750E1,2.086715698E-1,-2.390403003E-1,-6.483200192E-1
2.708473750E1,1.535715163E-1,-3.484549820E-1,-6.255085468E-1
2.710473750E1,7.168067247E-2,-2.637716234E-1,-4.888143539E-1
2.712473750E1,5.503023043E-2,-9.423032403E-2,-3.681073785E-1
2.714473750E1,6.396631896E-2,1.389456540E-1,-2.553242147E-1
2.716473750E1,1.347568780E-1,3.336022198E-1,-1.440943778E-1
2.718473750E1,2.139948159E-1,3.910235763E-1,-3.590142354E-2
2.720473750E1,1.988802701E-1,4.822344780E-1,5.777040031E-3
2.722473750E1,1.629613936E-1,5.337042212E-1,-4.899139330E-2
2.724473750E1,1.056622341E-1,6.011088490E-1,-1.287354827E-1
2.726473750E1,3.244566917E-2,5.810724497E-1,-1.736079007E-1
2.728473750E1,1.361356769E-2,5.273512602E-1,-1.802052408E-1
2.730473750E1,3.152064607E-2,4.820424914E-1,-2.275036722E-1
2.732473750E1,5.462880433E-2,5.045048594E-1,-2.427403927E-1
2.734473750E1,8.382816613E-2,4.473278821E-1,-2.044827789E-1
2.736473750E1,6.248278543E-2,2.659183741E-1,-1.301666498E-1
2.738473750E1,1.007927656E-1,2.481858134E-1,-1.384220570E-1
2.740473750E1,1.986708343E-1,4.919385016E-1,-1.533620805E-1
2.742473750E1,2.388134003E-1,6.166422963E-1,-1.473755985E-1
2.744473750E1,7.620107383E-2,4.708200097E-1,-5.974261835E-2
2.746473750E1,-1.442514658E-1,4.704535007E-1,7.332128286E-2
2.748473750E1,-3.237934709E-1,3.796963692E-1,1.793151200E-1
2.750473750E1,-6.387381554E-1,6.557551026E-1,1.413193047E-1
2.752473750E1,-9.994977117E-1,1.272100687E0,4.049163684E-2
2.754473750E1,-1.171168327E0,1.331232429E0,-2.168746144E-1
2.756473750E1,-1.282275915E0,6.968750358E-1,-8.340404630E-1
2.758473750E1,-1.226739526E0,-3.095341325E-1,-1.213684559E0
2.760473750E1,-1.274230003E0,-1.172512174E0,-1.354532599E0
2.762473750E1,-1.075087905E0,-1.493862152E0,-1.185863972E0
2.764473750E1,-1.014437675E0,-5.308593512E-1,-4.574508071E-1
2.766473750E1,-1.061509252E0,5.131791830E-1,-2.665117756E-2
2.768473750E1,-1.084320664E0,1.247474074E0,-7.122688740E-2
2.770473750E1,-1.135860324E0,7.070503235E-1,3.012438305E-2
2.772473750E1,-9.280090332E-1,-1.872738265E-2,2.588846982E-1
2.774473750E1,-5.476843119E-1,-1.165007278E-1,4.459490776E-1
2.776473750E1,-2.970899343E-1,2.735105455E-1,4.342379272E-1
2.778473750E1,-1.422268748E-1,8.868715763E-1,4.079881608E-1
2.780473750E1,-2.113593668E-1,9.502968788E-1,3.433411717E-1
2.782473750E1,-1.812349856E-1,8.836951256E-1,2.181661576E-1
2.784473750E1,2.431243658E-2,8.586670756E-1,1.293114424E-1
2.786473750E1,3.142116368E-1,6.138148308E-1,3.181735054E-2
2.788473750E1,5.089030862E-1,4.717974067E-1,-1.115265414E-1
2.790473750E1,6.448467970E-1,6.036919355E-1,-2.413441241E-1
2.792473750E1,7.748389244E-1,7.119547129E-1,-4.084070325E-1
2.794473750E1,4.270646274E-1,7.747341990E-1,-4.767541289E-1
2.796473750E1,-4.938060045E-1,1.038575649E0,-4.894775748E-1
2.798473750E1,-9.853779674E-1,1.156175852E0,2.954842336E-2
2.800473750E1,-7.998495102E-1,5.437398553E-1,7.810173631E-1
2.802473750E1,-6.367658973E-1,-2.831098437E-1,1.017317533E0
2.804473750E1,-5.725552440E-1,-8.480031490E-1,5.533217192E-1
2.806473750E1,6.025400162E-1,-1.203247428E0,-7.233691812E-1
2.808473750E1,8.599411845E-1,1.034631133E0,-7.660599351E-1
2.810473750E1,-7.421139628E-2,1.641656637E0,-4.979773462E-1
2.812473750E1,-5.850343704E-1,1.236635566E0,-3.067590594E-1
2.814473750E1,-2.735629082E-1,1.126295924E0,-3.511602432E-2
2.816473750E1,3.278950155E-1,1.024543166E0,1.120675877E-1
2.818473750E1,6.304304004E-1,3.481931984E-1,1.204277202E-1
2.820473750E1,9.377304912E-1,-7.107329965E-1,3.580019474E-1
2.822473750E1,1.294964433E0,-1.784407139E0,3.131644130E-1
2.824473750E1,5.949303508E-1,1.800708532E0,1.115963534E-1
2.826473750E1,7.244338393E-1,2.602792025E0,2.157750577E-1
2.828473750E1,9.408546090E-1,1.135144711E0,3.106511533E-1
2.830473750E1,9.013054967E-1,4.633150995E-1,1.393296272E-1
2.832473750E1,8.169187903E-1,5.356764793E-1,-4.930555075E-2
2.834473750E1,8.700291514E-1,5.720316768E-1,-2.020916790E-1
2.836473750E1,9.491624236E-1,4.138175547E-1,-2.135933936E-1
2.838473750E1,1.054597735E0,2.431592643E-1,-2.516066730E-1
2.840473750E1,1.001819015E0,-8.669050038E-2,-3.686309755E-1
2.842473750E1,8.381943703E-1,-4.651477039E-1,-5.411044359E-1
2.844473750E1,5.367760062E-1,-6.640105247E-1,-3.813718855E-1
2.846473750E1,1.837133616E-1,-6.560692787E-1,-8.028514567E-4
2.848473750E1,-1.309869587E-1,-6.356489062E-1,1.274963021E-1
2.850473750E1,-5.616294742E-1,2.054252476E-1,1.857553869E-1
2.852473750E1,-9.852558374E-1,1.034509063E0,3.314903975E-1
2.854473750E1,-9.992533326E-1,1.333518863E0,5.740388036E-1
2.856473750E1,-1.119541407E0,9.511520863E-1,9.653241634E-1
2.858473750E1,-1.899075270E0,-6.845879555E-1,1.087148190E0
2.860473750E1,-1.940579176E0,-2.491160870E0,8.570089936E-1
2.862473750E1,-1.195271254E0,-3.925629377E0,-3.754901290E-1
2.864473750E1,-8.797332048E-1,-7.639480829E-1,-1.673334360E0
2.866473750E1,-1.250825167E0,3.021339476E-1,-6.778858602E-2
2.868473750E1,-1.509343266E0,3.706730306E-1,-3.102148175E-1
2.870473750E1,-1.605406165E0,1.433805466E0,-2.462310493E-1
2.872473750E1,-1.416980505E0,1.114427686E0,3.087487444E-2
2.874473750E1,-1.147623777E0,6.359630823E-1,-1.513200440E-2
2.876473750E1,-7.947705984E-1,3.316998184E-1,-1.944296807E-1
2.878473750E1,-4.429296553E-1,3.098657429E-1,-2.664245069E-1
2.880473750E1,1.095019579E-1,5.481904745E-1,5.478588492E-2
2.882473750E1,3.380004764E-1,3.157126009E-1,1.811826229E-1
2.884473750E1,4.233819544E-1,4.775395393E-1,1.012639999E-1
2.886473750E1,4.884129465E-1,7.580662966E-1,9.450957924E-2
2.888473750E1,4.766494036E-1,5.808455944E-1,9.384635091E-2
2.890473750E1,7.738265991E-1,8.057487011E-1,5.878268927E-2
2.892473750E1,1.263391495E0,8.281762004E-1,6.017895415E-2
2.894473750E1,1.074040771E0,6.793519258E-1,-1.863488108E-1
2.896473750E1,-3.285058737E-1,9.783791900E-1,-4.787612557E-1
2.898473750E1,-1.505625725E0,3.306526244E-1,-2.140297294E-1
2.900473750E1,-1.372684002E0,-1.876124263E0,4.913101792E-1
2.902473750E1,-3.052231669E-1,-2.405622244E0,1.094321460E-1
2.904473750E1,8.089252114E-1,-8.962440491E-1,-5.710542798E-1
2.906473750E1,-2.225294709E-2,2.382269621E0,4.989896342E-2
2.908473750E1,-9.857444763E-1,1.578685164E0,1.335874945E-1
2.910473750E1,-8.998743296E-1,-7.960446924E-2,4.781678617E-1
2.912473750E1,2.876127958E-1,-2.094395161E-1,8.015424609E-1
2.914473750E1,1.276568770E0,-4.584980011E-1,6.701366305E-1
2.916473750E1,1.362770557E0,-1.140345812E0,5.141739845E-1
2.918473750E1,1.503479004E0,-1.629020452E0,5.493772626E-1
2.920473750E1,1.117290020E0,-7.618362457E-2,3.743033111E-1
2.922473750E1,4.383918047E-1,1.838721871E0,4.351105914E-2
2.924473750E1,8.502196670E-1,4.170813262E-1,8.670795709E-2
2.926473750E1,1.253774762E0,-2.454107404E-1,8.265879005E-2
2.928473750E1,1.399858832E0,2.748719156E-1,-3.424336016E-2
2.930473750E1,1.389020324E0,3.398156166E-1,-2.332981676E-1
2.932473750E1,1.337026954E0,-1.984788477E-1,-3.256086111E-1
2.934473750E1,1.193037271E0,-2.326349318E-1,-3.906570375E-1
2.936473750E1,1.131287456E0,-1.630835682E-1,-4.233819544E-1
2.938473750E1,1.007648349E0,-3.204075396E-1,-4.773475528E-1
2.940473750E1,7.932347059E-1,-6.692464948E-1,-5.024453998E-1
2.942473750E1,5.483999252E-1,-5.674588680E-1,-1.496794373E-1
2.944473750E1,2.796715498E-1,-3.710744381E-1,7.494443655E-2
2.946473750E1,2.722713631E-3,-9.861109778E-3,1.102524474E-1
2.948473750E1,-1.492954642E-1,2.775946259E-1,1.455953717E-1
2.950473750E1,-5.023057461E-1,-8.438666910E-2,2.661277950E-1
2.952473750E1,-9.234886169E-1,-2.765125036E-1,6.503446102E-1
2.954473750E1,-1.079922438E0,4.867723212E-2,8.584227562E-1
2.956473750E1,-1.243372560E0,4.193153381E-1,3.798534572E-1
2.958473750E1,-1.563448429E0,-8.833111078E-2,2.848900855E-1
2.960473750E1,-1.585858464E0,-1.561528563E0,1.064825356E-1
2.962473750E1,-1.395704865E0,-3.261828423E0,1.545366883E0
2.964473750E1,-9.638057351E-1,-2.524898052E0,8.583529294E-2
2.966473750E1,-1.052101970E0,-3.699225485E-1,-7.066663504E-1
2.968473750E1,-1.249411345E0,8.054694533E-1,-5.999743938E-1
2.970473750E1,-1.472202659E0,1.297582507E0,-7.487462368E-3
2.972473750E1,-1.650610209E0,1.188167810E0,2.492330223E-1
2.974473750E1,-1.638480186E0,7.640528083E-1,5.166174378E-3
2.976473750E1,-1.414345026E0,3.566405773E-1,-4.250225723E-1
2.978473750E1,-8.761203885E-1,2.461088747E-1,-3.704810441E-1
2.980473750E1,-2.101550996E-1,2.349213213E-1,-2.030865103E-1
2.982473750E1,1.833293885E-1,4.361228645E-1,-1.603433937E-1
2.984473750E1,4.620759189E-1,6.747966409E-1,-1.229584441E-1
2.986473750E1,7.048686743E-1,1.173157930E0,-8.557349443E-2
2.988473750E1,6.132040024E-1,1.152336240E0,-3.970624134E-2
2.990473750E1,5.542118549E-1,7.786437273E-1,3.892084211E-2
2.992473750E1,8.271988034E-1,4.545186460E-1,1.303411871E-1
2.994473750E1,1.292259216E0,2.354449183E-1,3.961897455E-3
2.996473750E1,4.338364899E-1,4.808905721E-1,-5.403888226E-1
2.998473750E1,-1.021261930E0,8.915491104E-1,-1.015886307E0
3.000473750E1,-1.391690612E0,-3.903428912E-1,-6.131690741E-1
3.002473750E1,-7.890807986E-1,-2.203233719E0,-1.609542668E-1
3.004473750E1,-5.979498103E-2,-1.702882886E0,-7.573332787E-1
3.006473750E1,-2.496868074E-1,1.737614870E0,-8.943939805E-1
3.008473750E1,-7.608413696E-1,1.834672689E0,-2.079210728E-1
3.010473750E1,-4.026300013E-1,-2.264041156E-1,3.299719393E-1
3.012473750E1,4.833689332E-1,-3.070906699E-1,6.329960227E-1
3.014473750E1,1.245658994E0,5.362349749E-1,8.546702862E-1
3.016473750E1,1.182495475E0,4.761258140E-2,6.503794789E-1
3.018473750E1,1.331494212E0,-1.134847999E0,6.837850809E-1
3.020473750E1,1.574321866E0,-1.075785995E0,6.469411850E-1
3.022473750E1,3.732037544E-1,2.748579502E0,-7.342600077E-2
3.024473750E1,6.286501288E-1,1.182181358E0,-7.853981806E-4
3.026473750E1,9.852383733E-1,-2.099805623E-1,3.354697227E-1
3.028473750E1,1.133853197E0,2.131221592E-1,1.503950208E-1
3.030473750E1,1.258225322E0,6.116855145E-1,-8.454374969E-2
3.032473750E1,1.375947714E0,3.375117779E-1,-3.885277510E-1
3.034473750E1,1.192007542E0,3.316998184E-1,-5.871985555E-1
3.036473750E1,9.595994949E-1,1.958433986E-1,-5.980719924E-1
3.038473750E1,9.426174164E-1,-3.333579004E-1,-5.424832106E-1
3.040473750E1,7.936535478E-1,-3.511078954E-1,-4.439594150E-1
3.042473750E1,3.768689334E-1,3.811798990E-2,-2.734581828E-1
3.044473750E1,5.749114603E-2,1.627344936E-1,-8.976228535E-2
3.046473750E1,-2.500009537E-1,1.413891166E-1,-6.782349199E-2
3.048473750E1,-4.423885942E-1,4.059286714E-1,-6.927211583E-2
3.050473750E1,-7.477688789E-1,8.516682982E-1,1.112821922E-1
3.052473750E1,-1.174711347E0,1.121653318E0,4.280419946E-1
3.054473750E1,-1.245240092E0,1.550724983E0,7.234389782E-1
3.056473750E1,-1.467036486E0,1.549677849E0,8.629955053E-1
3.058473750E1,-1.882407427E0,3.476346731E-1,6.132737994E-1
3.060473750E1,-1.798771262E0,-1.796380162E0,-7.285004109E-2
3.062473750E1,-1.387100458E0,-3.233361959E0,6.832963824E-1
3.064473750E1,-9.543285966E-1,-1.259481907E0,3.481582701E-1
3.066473750E1,-1.626105785E0,1.426579714E0,-3.417180181E-1
3.068473750E1,-1.804932237E0,2.051302910E0,-4.661774337E-1
3.070473750E1,-1.882407427E0,2.019468069E0,-1.107236892E-1
3.072473750E1,-1.902199388E0,1.384046078E0,3.928736225E-2
3.074473750E1,-1.507353544E0,1.184345484E0,-1.078613475E-2
3.076473750E1,-9.953787327E-1,1.142003775E0,1.333431527E-2
3.078473750E1,-6.413037777E-1,9.339256883E-1,6.073745713E-2
3.080473750E1,-5.662196875E-1,9.375210404E-1,-6.674139202E-2
3.082473750E1,-3.466922045E-1,9.143605232E-1,-5.234242231E-2
3.084473750E1,-4.951499030E-2,8.618959188E-1,1.040914357E-1
3.086473750E1,3.492229283E-1,1.477752805E0,8.759807795E-2
3.088473750E1,5.737769604E-1,1.713983178E0,1.160992980E-1
3.090473750E1,5.861338973E-1,1.454976320E0,1.641831249E-1
3.092473750E1,6.560867429E-1,1.051438689E0,9.712757170E-2
3.094473750E1,8.271813393E-1,8.773071766E-1,1.335351467E-1
3.096473750E1,3.635869920E-1,6.735923886E-1,-2.083923109E-2
3.098473750E1,-5.206491947E-1,7.331255674E-1,-1.368163526E-1
3.100473750E1,-1.200646877E0,8.849343061E-1,-3.290643692E-1
3.102473750E1,-1.666353106E0,-4.018620551E-1,-1.151393726E-1
3.104473750E1,-3.404264748E-1,-1.994789124E0,-6.504842043E-1
3.106473750E1,5.558524728E-1,-2.722713538E-2,-7.256555557E-1
3.108473750E1,-2.363175750E-1,1.610240817E0,7.175048441E-2
3.110473750E1,-1.128617167E0,1.539938927E0,1.684068143E-1
3.112473750E1,-2.862863541E-1,1.404414058E0,6.381447315E-1
3.114473750E1,9.780825377E-1,1.539624691E0,1.350308895E0
3.116473750E1,1.213597178E0,2.284985036E-1,1.052852392E0
3.118473750E1,1.269081235E0,-1.907400489E0,2.423913330E-1
3.120473750E1,1.538158655E0,-2.390821695E0,3.952647150E-1
3.122473750E1,9.649052620E-1,4.514835358E0,3.162536770E-2
3.124473750E1,5.064072609E-1,4.118034363E0,-2.723935246E-1
3.126473750E1,5.833937526E-1,1.045033336E0,4.305727184E-1
3.128473750E1,7.451683283E-1,-3.717725873E-1,5.629385114E-1
3.130473750E1,6.972939372E-1,4.279372692E-1,3.713886142E-1
3.132473750E1,6.801722646E-1,8.836427331E-1,1.637991518E-1
3.134473750E1,7.386058569E-1,8.558047414E-1,5.574581772E-2
3.136473750E1,7.420267463E-1,9.617287517E-1,-9.564404376E-3
3.138473750E1,7.342076302E-1,6.004281640E-1,-6.154030934E-2
3.140473750E1,8.567472100E-1,1.204800755E-1,-6.651449949E-2
3.142473750E1,7.918558717E-1,1.585282534E-1,-1.348965019E-1
3.144473750E1,4.238182902E-1,-9.590584040E-2,-1.957561225E-1
3.146473750E1,3.006678820E-1,-1.971000284E-1,-1.429948211E-1
3.148473750E1,3.687880635E-1,1.254193634E-1,-2.100678235E-1
3.150473750E1,3.035476506E-1,2.892010510E-1,-3.640756905E-1
3.152473750E1,-1.528908405E-2,1.794023961E-1,-3.615275025E-1
3.154473750E1,-3.405312002E-1,2.354972810E-1,-1.085594762E-2
3.156473750E1,-7.098079324E-1,7.493745685E-1,4.498935342E-1
3.158473750E1,-1.020162344E0,1.080899835E0,8.271638751E-1
3.160473750E1,-1.318596244E0,1.493897080E0,9.280264378E-1
3.162473750E1,-1.910123229E0,1.312801719E0,7.572983503E-1
3.164473750E1,-2.123001099E0,-2.813470662E-1,6.949203014E-1
3.166473750E1,-1.703947544E0,-2.259154081E0,1.751961559E-1
3.168473750E1,-1.155146122E0,-3.278147221E0,1.456442356E0
3.170473750E1,-8.315272331E-1,-9.529322982E-1,2.049889266E-1
3.172473750E1,-1.080830097E0,1.965205789E0,-1.262222081E-1
3.174473750E1,-1.209722638E0,2.443007231E0,-1.723687202E-1
3.176473750E1,-1.376593590E0,2.566768408E0,5.476843193E-2
3.178473750E1,-1.500058174E0,2.266990662E0,-4.319689795E-2
3.180473750E1,-1.253460526E0,2.739486217E0,-3.317521811E-1
3.182473750E1,-7.462504506E-1,2.963202477E0,-1.129751652E-1
3.184473750E1,-7.220426798E-1,1.333344221E0,-1.570796408E-2
3.186473750E1,-6.669601202E-1,2.006779611E-1,-8.014551550E-2
3.188473750E1,-3.011216521E-1,3.726801574E-1,-2.077116370E-1
3.190473750E1,1.016828790E-1,8.500451446E-1,-1.462411433E-1
3.192473750E1,3.787539005E-1,1.106189728E0,3.497639671E-2
3.194473750E1,3.640407622E-1,1.081999421E0,1.752310544E-1
3.196473750E1,5.956285000E-1,8.666955829E-1,1.108284071E-1
3.198473750E1,1.095281363E0,3.455228209E-1,-6.316346675E-2
3.200473750E1,1.078735590E0,3.718947470E-1,-9.536478668E-2
3.202473750E1,-2.729694843E-1,7.847523689E-1,-4.534888864E-1
3.204473750E1,-6.592981219E-1,5.277003050E-1,-3.796265721E-1
3.206473750E1,-7.704232335E-1,-4.384616017E-1,-3.525565146E-3
3.208473750E1,-1.343763947E0,-1.613225222E0,3.078760803E-1
3.210473750E1,-6.519328356E-1,-3.373703957E0,-2.248682231E-1
3.212473750E1,-7.923794910E-3,-2.486570626E-1,-1.167293668E0
3.214473750E1,-9.759532213E-1,2.014581203E0,-6.027843356E-1
3.216473750E1,-8.375486135E-1,1.558055431E-1,-7.510151714E-2
3.218473750E1,1.313011199E-1,-2.161764801E-1,9.902998060E-2
3.220473750E1,1.108353853E0,8.940798044E-1,4.068362415E-1
3.222473750E1,1.203648806E0,4.012860954E-1,3.339338303E-1
3.224473750E1,1.221678138E0,-1.342507243E0,3.924372792E-1
3.226473750E1,1.195271254E0,-2.257513523E0,5.019043088E-1
3.228473750E1,8.498706222E-1,1.255205870E0,5.369854569E-1
3.230473750E1,1.077129960E0,2.059924841E0,2.630036771E-1
3.232473750E1,1.515870810E0,-1.024508253E-1,2.354798168E-1
3.234473750E1,1.666091323E0,-7.977376580E-1,-1.638864167E-2
3.236473750E1,1.822368026E0,-3.559075296E-1,-4.033455849E-1
3.238473750E1,1.793029070E0,-3.980048895E-1,-5.628686547E-1
3.240473750E1,1.622894406E0,-3.733433783E-1,-4.868421257E-1
3.242473750E1,1.291299343E0,-1.145162821E0,-2.002241760E-1
3.244473750E1,1.105945349E0,-1.656142950E0,-1.413193047E-1
3.246473750E1,7.800923586E-1,-1.300200462E0,-2.135584801E-1
3.248473750E1,4.487939477E-1,-5.915967822E-1,-1.039343551E-1
3.250473750E1,2.077988982E-1,-1.754754037E-1,5.133013427E-2
3.252473750E1,1.755801216E-2,8.995427191E-2,7.621853054E-2
3.254473750E1,-1.769763827E-1,4.952720702E-1,1.427679360E-1
3.256473750E1,-5.720142126E-1,4.808556736E-1,5.101248026E-1
3.258473750E1,-1.094670534E0,2.371727973E-1,1.080446124E0
3.260473750E1,-1.387571692E0,2.531599998E-1,1.407433510E0
3.262473750E1,-1.501506805E0,1.840449721E-1,1.308054447E0
3.264473750E1,-1.354689598E0,-1.470265388E0,2.486361027E0
3.266473750E1,-1.360135078E0,-1.510268331E0,1.601322174E0
3.268473750E1,-1.594899297E0,-2.042035107E-3,5.603728890E-1
3.270473750E1,-1.482151031E0,-2.656565607E-1,-2.650282383E-1
3.272473750E1,-1.277336717E0,-1.112036586E0,-7.364766002E-1
3.274473750E1,-1.296290994E0,-1.760164499E-1,-3.166725338E-1
3.276473750E1,-1.466495395E0,6.778509617E-1,3.409849703E-1
3.278473750E1,-1.333379149E0,2.104430676E0,9.941570163E-1
3.280473750E1,-1.096415877E0,2.801410437E0,6.827029586E-1
3.282473750E1,-8.528202176E-1,2.268579006E0,2.591813914E-2
3.284473750E1,-7.685906291E-1,1.470701694E0,-2.899166346E-1
3.286473750E1,-3.967657089E-1,8.243364692E-1,-2.786069214E-1
3.288473750E1,-9.016370773E-2,7.592182159E-1,-9.866346419E-2
3.290473750E1,2.032784969E-1,1.125109076E0,1.126086414E-1
3.292473750E1,6.041631699E-1,1.461468935E0,3.274237737E-2
3.294473750E1,5.720316768E-1,1.147885561E0,-1.031489577E-2
3.296473750E1,5.763949752E-1,4.952546358E-1,-8.784241974E-2
3.298473750E1,9.114633203E-1,8.766090870E-1,-1.799434423E-2
3.300473750E1,9.320930839E-1,3.327121139E-1,-1.113170981E-1
3.302473750E1,4.273089468E-1,1.734682769E-1,-6.244438887E-1
3.304473750E1,-7.999367714E-1,1.830134749E0,-1.184502602E0
3.306473750E1,-1.877747416E0,4.986231029E-1,-9.660397172E-1
3.308473750E1,-1.481854320E0,-3.582829237E0,1.115265414E-1
3.310473750E1,-3.597123548E-2,-4.163832068E-1,-1.235291719E0
3.312473750E1,-3.628365099E-1,2.388849497E0,-1.027353168E0
3.314473750E1,-9.144477844E-1,1.306920052E0,1.358215213E-1
3.316473750E1,-2.513274252E-1,-8.546702862E-1,5.962219238E-1
3.318473750E1,9.520072937E-1,-7.526906729E-1,7.201402783E-1
3.320473750E1,1.424136281E0,-2.281668931E-1,6.132563353E-1
3.322473750E1,1.393889785E0,-1.962570429E0,5.138249397E-1
3.324473750E1,1.697193027E0,-2.679918051E0,3.175626695E-1
3.326473750E1,1.326240778E0,3.817384243E-1,9.529497474E-2
3.328473750E1,7.210828066E-1,2.813069344E0,-3.209660351E-1
3.330473750E1,9.712408185E-1,1.027998887E-2,4.303458333E-1
3.332473750E1,1.327305436E0,-1.373312354E0,1.402546614E-1
3.334473750E1,1.146436930E0,-9.949598312E-1,-1.026951745E-1
3.336473750E1,1.561039925E0,-7.708595395E-1,-4.316548407E-1
3.338473750E1,2.045299053E0,-5.389576554E-1,-5.297597647E-1
3.340473750E1,1.869073033E0,-1.807637513E-1,-4.766145051E-1
3.342473750E1,1.417242289E0,-8.866970539E-1,-3.080680668E-1
3.344473750E1,1.281507969E0,-1.168515325E0,-2.924473584E-1
3.346473750E1,1.021052480E0,-1.054405808E0,-3.568325639E-1
3.348473750E1,7.428295612E-1,-1.145616651E0,-3.990520835E-1
3.350473750E1,5.004033446E-1,-7.917686105E-1,-3.202679157E-1
3.352473750E1,1.295557916E-1,-2.835112810E-1,-1.739395112E-1
3.354473750E1,-1.181762442E-1,-7.232644409E-2,-1.486147791E-1
3.356473750E1,-3.375117779E-1,-1.561022550E-1,-2.858849242E-2
3.358473750E1,-7.486240864E-1,-2.808932960E-1,5.375788808E-1
3.360473750E1,-1.217925668E0,-1.659982651E-1,1.070619822E0
3.362473750E1,-1.168497920E0,4.865454435E-1,1.299066067E0
3.364473750E1,-1.253460526E0,-9.915215522E-2,2.506013632E0
3.366473750E1,-1.642948270E0,-8.148418665E-1,2.466377020E0
3.368473750E1,-2.254738569E0,-9.155124426E-1,1.402302265E0
3.370473750E1,-2.474894285E0,-1.561109781E0,2.151990980E-1
3.372473750E1,-1.626420021E0,-2.051268101E0,1.134463996E-1
3.374473750E1,-8.681092858E-1,-2.253394574E-1,6.267477572E-2
3.376473750E1,-1.386803746E0,2.107467651E0,5.150641203E-1
3.378473750E1,-1.868619323E0,3.536578178E0,1.284056187E0
3.380473750E1,-1.459601402E0,3.015248299E0,9.468760490E-1
3.382473750E1,-5.528504848E-1,2.474649906E0,2.905100584E-1
3.384473750E1,-8.848819137E-2,2.372705221E0,-8.333947510E-2
3.386473750E1,-1.006182283E-1,1.370292902E0,-3.587873280E-1
3.388473750E1,-2.121098638E-1,1.087654233E0,-1.265887320E-1
3.390473750E1,-3.850196302E-2,1.227664590E0,-1.717403904E-2
3.392473750E1,2.691646814E-1,1.277563572E0,9.086184204E-2
3.394473750E1,3.854036033E-1,7.049908638E-1,-2.935643867E-2
3.396473750E1,6.443930268E-1,2.833018303E-1,-1.895253062E-1
3.398473750E1,9.994802475E-1,1.227141023E-1,-4.499807954E-1
3.400473750E1,1.469567180E0,3.197792172E-1,-7.281339169E-1
3.402473750E1,9.781523347E-1,1.955816001E-1,-7.445749044E-1
3.404473750E1,-3.043854237E-1,1.093797803E0,-7.549770474E-1
3.406473750E1,-8.199033141E-1,9.939824343E-1,-9.998991340E-2
3.408473750E1,-1.231120348E0,-7.402639389E-1,5.516811013E-1
3.410473750E1,-1.462289214E0,-3.585133076E0,9.405579418E-2
3.412473750E1,2.120749503E-1,-2.566960335E0,-1.173332453E0
3.414473750E1,-6.143558770E-3,2.646756887E0,-7.730237842E-1
3.416473750E1,-1.018539190E0,2.438137770E0,-5.494471192E-1
3.418473750E1,-3.865904212E-1,6.024352908E-1,-4.261221290E-1
3.420473750E1,8.380198479E-1,4.177794755E-1,9.775589406E-2
3.422473750E1,1.325961590E0,-3.679503202E-1,1.555262953E-1
3.424473750E1,1.366575360E0,-2.006325722E0,4.085117579E-1
3.426473750E1,1.675900102E0,-3.561379194E0,3.636567891E-1
3.428473750E1,2.027095318E0,-8.085063100E-1,4.767541289E-1
3.430473750E1,1.544092774E0,4.853621006E0,1.853714138E-1
3.432473750E1,1.472516775E0,2.836544037E0,-2.084795833E-1
3.434473750E1,1.708136320E0,5.884552002E-1,-2.679080330E-2
3.436473750E1,1.747859955E0,-8.877268434E-1,1.416160166E-1
3.438473750E1,1.242430091E0,-2.151711702E0,-1.996656656E-1
3.440473750E1,9.817826152E-1,-2.017967224E0,-4.124212861E-1
3.442473750E1,9.778556228E-1,-1.037702918E0,-2.809630930E-1
3.444473750E1,1.021244526E0,-1.022570968E0,-1.872563809E-1
3.446473750E1,7.805635929E-1,-8.625417352E-1,-3.196570575E-1
3.448473750E1,5.077162981E-1,-7.281687856E-1,-3.448596001E-1
3.450473750E1,1.506917328E-1,-5.855230689E-1,-1.698554456E-1
3.452473750E1,4.146902263E-2,-2.167873383E-1,-5.703736097E-2
3.454473750E1,-4.071853310E-2,1.181587856E-2,1.888446324E-2
3.456473750E1,-1.954419762E-1,4.752008021E-1,1.158025935E-1
3.458473750E1,-3.834663033E-1,3.057118654E-1,2.189166546E-1
3.460473750E1,-8.398698568E-1,1.297826767E-1,4.230154455E-1
3.462473750E1,-1.234645963E0,4.605923966E-2,7.058984041E-1
3.464473750E1,-1.370083451E0,2.866877913E-1,5.918934941E-1
3.466473750E1,-1.724647045E0,9.131562710E-2,1.300130606E0
3.468473750E1,-1.486043096E0,-1.299764156E0,1.945413828E0
3.470473750E1,-1.459967971E0,-1.707961798E0,1.245711327E0
3.472473750E1,-1.604219317E0,-1.104252338E0,1.530304700E-1
3.474473750E1,-1.111809611E0,-1.358442068E0,-3.503399491E-1
3.476473750E1,-9.655684829E-1,-3.740764260E-1,-4.869992137E-1
3.478473750E1,-1.252395868E0,1.645566225E0,-1.747772694E-1
3.480473750E1,-1.392057180E0,2.721701384E0,2.714161575E-1
3.482473750E1,-1.297250867E0,2.766957760E0,3.249279559E-1
3.484473750E1,-1.109383583E0,2.260428190E0,-9.145525098E-2
3.486473750E1,-7.012383938E-1,2.502453089E0,-2.531425655E-1
3.488473750E1,-5.246808529E-1,2.077814579E0,-2.631781995E-1
3.490473750E1,-3.768514991E-1,1.103501916E0,-1.823170930E-1
3.492473750E1,-1.423490494E-1,7.239102125E-1,8.361872286E-2
3.494473750E1,2.837032676E-1,1.238677621E0,1.997180283E-1
3.496473750E1,5.714207888E-1,1.775977254E0,2.757794857E-1
3.498473750E1,5.961171985E-1,1.445533991E0,2.545911670E-1
3.500473750E1,7.846825719E-1,6.201853156E-1,1.545314491E-1
3.502473750E1,9.981712699E-1,-3.905872405E-1,-8.878489584E-2
3.504473750E1,1.358930826E0,-9.724974632E-1,-5.606521368E-1
3.506473750E1,-1.981646866E-1,8.049982190E-1,-8.625068069E-1
3.508473750E1,-1.486898303E0,1.545593739E0,5.729915947E-2
3.510473750E1,-1.894904017E0,-4.068537056E-1,-1.477770209E-1
3.512473750E1,-1.547792912E0,-2.636250019E0,-3.488738537E-1
3.514473750E1,9.281660616E-2,-2.427351475E0,-1.318177342E0
3.516473750E1,-7.379251719E-2,1.109837413E0,-1.068403244E0
3.518473750E1,-7.196341753E-1,2.040446997E0,-5.743180513E-1
3.520473750E1,-4.991816282E-1,2.571218908E-1,-3.852116168E-1
3.522473750E1,7.043799758E-1,-4.525987804E-1,-2.364921197E-2
3.524473750E1,1.592002034E0,-4.062951803E-1,6.508332491E-2
3.526473750E1,1.490947485E0,-1.329958320E0,7.522369176E-2
3.528473750E1,1.271123290E0,-1.963757157E0,4.356690943E-1
3.530473750E1,1.280740023E0,-1.415549278E0,7.238229513E-1
3.532473750E1,7.303504944E-1,1.508662581E0,6.801198721E-1
3.534473750E1,7.146075964E-1,1.358354807E0,4.750786126E-1
3.536473750E1,1.283218384E0,-6.762103438E-1,4.141840935E-1
3.538473750E1,1.740616798E0,-1.539048791E0,2.539977729E-1
3.540473750E1,1.649091840E0,-9.110444188E-1,1.186823938E-3
3.542473750E1,1.738784313E0,1.555437446E-1,-2.945592105E-1
3.544473750E1,1.801127434E0,7.962192297E-1,-5.883330107E-1
3.546473750E1,1.444434524E0,1.076868176E-1,-4.253716469E-1
3.548473750E1,1.046202660E0,-1.613155484E0,-3.472332656E-1
3.550473750E1,8.723504543E-1,-2.281686306E0,-3.687008023E-1
3.552473750E1,5.686457157E-1,-1.362089872E0,-3.898541927E-1
3.554473750E1,3.432189822E-1,-7.401068807E-1,-1.581966430E-1
3.556473750E1,1.984264851E-1,-4.653396904E-1,4.799655639E-3
3.558473750E1,1.045452245E-2,-2.158099562E-1,1.402895600E-1
3.560473750E1,-1.842020452E-1,2.957634926E-1,2.689901292E-1
3.562473750E1,-3.751759827E-1,5.159193277E-1,4.975061119E-1
3.564473750E1,-7.118674517E-1,7.636862397E-1,9.182526469E-1
3.566473750E1,-1.111809611E0,1.088684082E0,1.235797882E0
3.568473750E1,-1.496183515E0,9.728465080E-1,1.356539726E0
3.570473750E1,-1.540863872E0,-5.685235262E-1,1.852143407E0
3.572473750E1,-1.406648159E0,-2.785981894E0,1.965467572E0
3.574473750E1,-1.549101830E0,-1.510041356E0,6.837327480E-1
3.576473750E1,-1.399178147E0,-1.450019479E-1,-1.765400469E-1
3.578473750E1,-1.145145416E0,-1.788787991E-1,-8.660672903E-1
3.580473750E1,-1.095804930E0,8.609011173E-1,-8.989143968E-1
3.582473750E1,-1.442043424E0,1.623260975E0,-6.363819242E-1
3.584473750E1,-1.558718681E0,2.484860182E0,-2.572964430E-1
3.586473750E1,-1.343275189E0,2.871328354E0,-5.665338784E-2
3.588473750E1,-7.094414234E-1,1.988139391E0,-1.120326817E-1
3.590473750E1,-3.483851850E-1,1.307984591E0,-1.601339579E-1
3.592473750E1,-1.918814927E-1,7.815235257E-1,-2.674891651E-1
3.594473750E1,-2.221629620E-1,5.713335276E-1,-1.185951233E-1
3.596473750E1,-2.264215648E-1,7.772998214E-1,4.553563893E-2
3.598473750E1,-3.358013555E-2,1.345928073E0,1.300270297E-2
3.600473750E1,2.351482064E-1,1.520077109E0,1.184554994E-1
3.602473750E1,5.916317105E-1,8.555080295E-1,3.275284767E-1
3.604473750E1,9.769306183E-1,-2.569473684E-1,4.391946495E-1
3.606473750E1,1.282904267E0,-9.557422996E-1,2.759714723E-1
3.608473750E1,1.143644452E0,-9.549918175E-1,-3.443883657E-1
3.610473750E1,-8.667305112E-2,-8.480554819E-2,2.573313415E-1
3.612473750E1,-1.332174897E0,1.633488536E0,-2.535090744E-1
3.614473750E1,-1.587359548E0,7.755719423E-1,9.897761792E-2
3.616473750E1,-1.596644640E0,-2.637244940E0,-2.895501256E-2
3.618473750E1,-7.189010829E-2,-2.854468584E0,-1.102315068E0
3.620473750E1,-3.056071512E-2,9.203470349E-1,-1.095124245E0
3.622473750E1,-5.271592736E-1,1.577131867E0,-5.815786123E-1
3.624473750E1,-2.050238252E-1,-1.336224079E-1,-3.427826762E-1
3.626473750E1,5.619611144E-1,-3.843215108E-1,-1.981646866E-1
3.628473750E1,1.375528932E0,-2.664768696E-1,1.795943826E-2
3.630473750E1,1.270756721E0,-1.386070728E0,-5.436700583E-2
3.632473750E1,1.229898572E0,-2.139634132E0,5.250997543E-1
3.634473750E1,1.392336369E0,-2.606090784E0,8.664163351E-1
3.636473750E1,1.392336369E0,-2.606090784E0,8.664163351E-1
3.638473750E1,8.318937421E-1,1.084844351E0,2.033308595E-1
3.640473750E1,1.371270299E0,-5.283809900E-1,2.318320870E-1
3.642473750E1,1.639492512E0,-1.930648327E0,2.476273179E-1
3.644473750E1,1.479393482E0,-1.363503575E0,-1.741140485E-1
3.646473750E1,1.494228721E0,9.622000158E-2,-4.833689332E-1
3.648473750E1,1.565071583E0,5.261469483E-1,-4.879766107E-1
3.650473750E1,1.431152582E0,2.859372795E-1,-2.457423508E-1
3.652473750E1,1.005693674E0,-1.446511388E0,-2.081130594E-1
3.654473750E1,8.246505857E-1,-1.849158883E0,-2.523396909E-1
3.656473750E1,6.286326647E-1,-1.021855354E0,-3.973765671E-1
3.658473750E1,3.731339276E-1,-4.490732253E-1,-1.900489032E-1
3.660473750E1,1.545139998E-1,-1.663298719E-2,-1.680752076E-2
3.662473750E1,-9.391617030E-2,1.029046103E-1,5.623450875E-2
3.664473750E1,-2.583261728E-1,2.612932324E-1,8.454374969E-2
3.666473750E1,-4.681321979E-1,2.586228848E-1,4.105538130E-1
3.668473750E1,-7.704755664E-1,3.172484934E-1,8.878141046E-1
3.670473750E1,-1.014559865E0,7.687477469E-1,1.079939961E0
3.672473750E1,-1.462341547E0,1.111373305E0,8.596968055E-1
3.674473750E1,-1.552260876E0,-9.354964644E-2,1.910768986E0
3.676473750E1,-1.399876237E0,-1.635303736E0,1.537268519E0
3.678473750E1,-1.703615904E0,-1.369978786E0,5.042081475E-1
3.680473750E1,-1.516935468E0,-1.182041645E0,-2.239257395E-1
3.682473750E1,-1.260564089E0,-5.217312574E-1,-6.179862022E-1
3.684473750E1,-9.667553306E-1,1.155861735E0,-5.423959494E-1
3.686473750E1,-1.166263938E0,1.965869069E0,-4.815712571E-1
3.688473750E1,-1.355248213E0,2.420789003E0,-3.530800939E-1
3.690473750E1,-1.460177302E0,2.353890657E0,-4.838401675E-1
3.692473750E1,-1.179266572E0,1.953163028E0,-5.823814869E-1
3.694473750E1,-8.671493530E-1,1.694226027E0,-4.508709013E-1
3.696473750E1,-5.969375372E-1,8.644964695E-1,-3.170216084E-1
3.698473750E1,-3.724707067E-1,1.178097278E-1,-4.975933582E-2
3.700473750E1,8.412486874E-3,2.831796706E-1,1.950230896E-1
3.702473750E1,5.150641203E-1,1.114497423E0,2.676636875E-1
3.704473750E1,7.451159358E-1,1.409929276E0,2.600715160E-1
3.706473750E1,6.116331816E-1,8.106879592E-1,2.009746581E-1
3.708473750E1,7.287622094E-1,2.633178234E-1,1.136732921E-1
3.710473750E1,1.065610766E0,5.874603987E-1,1.077740788E-1
3.712473750E1,1.092960119E0,5.142437816E-1,-1.431169957E-1
3.714473750E1,-6.766641140E-2,7.218158245E-1,-8.375835419E-2
3.716473750E1,-1.400015831E0,7.117277980E-1,2.054950595E-1
3.718473750E1,-1.770846009E0,-1.019272301E-2,2.438923120E-1
3.720473750E1,-1.504875183E0,-8.589288592E-1,3.014707267E-1
3.722473750E1,-5.706005096E-1,-2.201628208E0,-5.807059407E-1
3.724473750E1,-6.063972116E-1,7.270867229E-1,-1.175688744E0
3.726473750E1,-8.874650002E-1,1.698205352E0,-9.593027830E-1
3.728473750E1,-6.184923053E-1,9.356884360E-1,-1.919513047E-1
3.730473750E1,7.096508890E-2,-1.975363642E-1,-1.560324337E-2
3.732473750E1,9.540667534E-1,1.286482215E-1,1.799783558E-1
3.734473750E1,1.130187988E0,3.316300213E-1,2.672971785E-1
3.736473750E1,1.056604862E0,-1.116068244E0,4.130496085E-1
3.738473750E1,1.346451759E0,-1.809731841E0,5.961346626E-1
3.740473750E1,1.106608510E0,-4.864407182E-1,8.948128223E-1
3.742473750E1,5.249601603E-1,1.631708264E0,7.623074651E-1
3.744473750E1,7.369303703E-1,2.079210728E-1,3.338640332E-1
3.746473750E1,1.202776194E0,-1.579418302E0,1.062207371E-1
3.748473750E1,1.371444821E0,-1.937891364E0,-8.025024086E-2
3.750473750E1,1.333920240E0,-9.240121841E-1,-4.672769904E-1
3.752473750E1,1.605528355E0,1.610589772E-1,-6.609038115E-1
3.754473750E1,1.680071354E0,7.750309110E-1,-5.679126978E-1
3.756473750E1,1.331651330E0,1.500459611E-1,-2.664245069E-1
3.758473750E1,9.226159453E-1,-1.333169699E0,-1.621236354E-1
3.760473750E1,7.404209971E-1,-1.409178853E0,-2.048143893E-1
3.762473750E1,5.630432367E-1,-1.080393672E0,-3.373197913E-1
3.764473750E1,4.117929935E-1,-8.167442679E-1,-3.382098973E-1
3.766473750E1,3.006504178E-1,-7.896044254E-1,-2.015680820E-1
3.768473750E1,1.230108067E-1,-3.152064681E-1,-5.427974090E-2
3.770473750E1,1.310044080E-1,3.524692357E-1,3.813544288E-2
3.772473750E1,-7.780677825E-2,2.713463306E-1,2.422691584E-1
3.774473750E1,-3.008075058E-1,5.888217092E-1,7.683811784E-1
3.776473750E1,-3.465525806E-1,1.086432576E0,1.217279911E0
3.778473750E1,-6.583556533E-1,9.266127348E-1,1.640051007E0
3.780473750E1,-1.210700035E0,2.950828075E-1,1.408725023E0
3.782473750E1,-1.403646111E0,-1.363102198E-1,5.751732588E-1
3.784473750E1,-1.498626947E0,-1.144272804E0,9.997245669E-1
3.786473750E1,-1.510617375E0,-1.207994699E0,4.352327585E-1
3.788473750E1,-1.244646668E0,4.211479425E-1,-4.858472943E-1
3.790473750E1,-1.246199965E0,1.507405996E0,-7.294778228E-1
3.792473750E1,-1.100936294E0,1.140049100E0,-1.013163686E0
3.794473750E1,-1.063970208E0,4.010592103E-1,-7.390596867E-1
3.796473750E1,-7.779281735E-1,1.065575838E0,2.681698501E-1
3.798473750E1,-7.492000461E-1,1.878113866E0,5.541943908E-1
3.800473750E1,-1.148391724E0,1.993846655E0,2.687981427E-1
3.802473750E1,-1.233930349E0,1.395984173E0,2.238908410E-1
3.804473750E1,-1.075192571E0,1.200367689E0,9.023351967E-2
3.806473750E1,-7.310835123E-1,1.320254326E0,-2.234021388E-2
3.808473750E1,-4.345346093E-1,8.937482238E-1,8.667305112E-2
3.810473750E1,-5.197590590E-2,7.826754451E-1,8.171631396E-2
3.812473750E1,2.102598101E-1,7.692189813E-1,2.895501256E-2
3.814473750E1,4.521624446E-1,9.635090232E-1,2.029817924E-2
3.816473750E1,5.724331141E-1,9.168738127E-1,1.176526472E-1
3.818473750E1,6.503096819E-1,4.204847217E-1,1.023461074E-1
3.820473750E1,6.942221522E-1,2.617993741E-4,1.192932576E-1
3.822473750E1,7.846476436E-1,-5.213996768E-1,-6.230825558E-2
3.824473750E1,7.172604799E-1,-4.455825686E-1,2.441715635E-2
3.826473750E1,5.591162443E-1,1.418952644E-1,7.442083955E-2
3.828473750E1,2.915747166E-1,1.176543951E0,-2.631956525E-2
3.830473750E1,-1.661029905E-1,1.262466431E0,-3.920009360E-2
3.832473750E1,-5.693438649E-1,1.734682769E-1,-4.679227620E-2
3.834473750E1,-6.241471767E-1,-9.227032065E-1,1.137954649E-2
3.836473750E1,-3.093596101E-1,-7.005227804E-1,9.930923581E-3
3.838473750E1,-4.333652556E-1,-3.976383507E-1,-3.024830222E-1
3.840473750E1,-1.034509063E0,3.488913178E-2,-6.337814331E-1
3.842473750E1,-1.039361000E0,2.071531266E-1,-1.363416314E0
3.844473750E1,-3.005631566E-1,1.161760926E0,-1.128477573E0
3.846473750E1,4.974711835E-1,1.034910440E0,-3.348588645E-1
3.848473750E1,2.738072574E-1,-2.735803723E-1,1.593834609E-1
3.850473750E1,4.118976891E-1,-6.691592336E-1,2.437003255E-1
3.852473750E1,6.608863473E-1,-8.851262927E-1,5.107531548E-1
3.854473750E1,9.797754884E-1,-1.295959353E0,7.101570368E-1
3.856473750E1,1.021436453E0,-1.292887568E0,6.141290069E-1
3.858473750E1,5.573185086E-1,-4.402244091E-1,1.867153198E-1
3.860473750E1,6.172705889E-1,-5.719967484E-1,-1.313185692E-1
3.862473750E1,8.146848083E-1,-1.210996747E0,7.200530171E-1
3.864473750E1,8.832936883E-1,4.118977115E-3,-2.766346931E-2
3.866473750E1,7.424630523E-1,1.714087874E-1,-1.825265288E-1
3.868473750E1,8.270417452E-1,-4.023507535E-1,-2.009048462E-1
3.870473750E1,9.509077072E-1,-3.475474119E-1,-1.651255935E-1
3.872473750E1,1.025503159E0,1.085594762E-2,-2.113942802E-1
3.874473750E1,8.663640022E-1,-1.113520041E-1,-2.390926480E-1
3.876473750E1,6.407627463E-1,-1.813047975E-1,-1.983566731E-1
3.878473750E1,6.765245199E-1,-2.394766212E-1,-1.330115348E-1
3.880473750E1,7.890284657E-1,-1.522974372E-1,-1.219286993E-1
3.882473750E1,7.931997776E-1,-2.755525708E-1,-1.731890142E-1
3.884473750E1,7.648207545E-1,-3.969053328E-1,-2.248158604E-1
3.886473750E1,6.422462463E-1,-2.056695968E-1,-2.445729822E-1
3.888473750E1,6.483374834E-1,-2.018647790E-1,-3.059736788E-1
3.890473750E1,6.581811309E-1,-3.234618604E-1,-2.535614371E-1
3.892473750E1,5.401445031E-1,6.756169349E-2,-2.127730846E-1
3.894473750E1,3.085567653E-1,5.588544011E-1,-2.621135414E-1
3.896473750E1,2.288999259E-1,6.030810475E-1,-3.226415515E-1
3.898473750E1,2.369982600E-1,5.407727957E-1,-3.256959021E-1
3.900473750E1,9.651670605E-2,6.383890510E-1,-1.720545590E-1
3.902473750E1,-1.636071652E-1,8.701513410E-1,9.335765988E-2
3.904473750E1,-4.234168828E-1,9.003280997E-1,3.641803861E-1
3.906473750E1,-9.107302427E-1,9.663888216E-1,7.001039386E-1
3.908473750E1,-1.120588660E0,1.302713752E0,9.917659163E-1
3.910473750E1,-8.921948671E-1,1.570551991E0,8.931373358E-1
3.912473750E1,-1.267632604E0,4.423362315E-1,1.699130416E0
3.914473750E1,-1.910803914E0,-2.179916143E0,1.788840294E0
3.916473750E1,-2.153073072E0,-2.825356483E0,9.017592669E-1
3.918473750E1,-1.697960973E0,-2.875709295E0,2.758318484E-1
3.920473750E1,-8.778482676E-1,-2.227982521E0,6.623524427E-2
3.922473750E1,-3.280346394E-1,2.017251551E-1,-1.616000384E-1
3.924473750E1,-7.119197845E-1,2.538721085E0,-3.454530239E-1
3.926473750E1,-1.452358246E0,3.298480272E0,-1.189965457E-1
3.928473750E1,-1.874309063E0,2.511493921E0,-2.063677311E-1
3.930473750E1,-1.330289960E0,1.176578760E0,-1.066570729E-1
3.932473750E1,-2.105216086E-1,8.661545515E-1,5.061454605E-3
3.934473750E1,8.217009902E-2,4.190186560E-1,-7.859217376E-2
3.936473750E1,-1.474279612E-1,4.902978837E-1,-3.609341010E-2
3.938473750E1,-2.682571113E-1,1.149788022E0,-1.282642484E-1
3.940473750E1,-6.784094870E-2,1.098859310E0,-6.698573381E-2
3.942473750E1,2.881887555E-1,5.918236971E-1,3.385938704E-3
3.944473750E1,5.984559655E-1,3.192207217E-1,-6.174974889E-2
3.946473750E1,8.578293324E-1,4.491430223E-1,-3.743207753E-1
3.948473750E1,1.129716754E0,1.017457128E0,-4.705232978E-1
3.950473750E1,1.012832046E0,8.772199154E-1,-4.412366748E-1
3.952473750E1,2.608045638E-1,1.402895600E-1,5.129522830E-2
3.954473750E1,-7.986277342E-1,-9.096307158E-1,6.926687956E-1
3.956473750E1,-1.411046386E0,-2.131535769E0,8.977973461E-1
3.958473750E1,-1.096712589E0,-2.697127104E0,2.117957026E-1
3.960473750E1,3.720518351E-1,-1.326991320E0,-1.217768550E0
3.962473750E1,8.025024086E-2,2.062769651E0,-1.310445547E0
3.964473750E1,-5.303357244E-1,2.322946072E0,-9.609434009E-1
3.966473750E1,-2.623578906E-1,-1.109383583E0,-6.050881743E-1
3.968473750E1,7.791324258E-1,-1.468171000E0,-1.484751552E-1
3.970473750E1,1.429023266E0,-6.379876733E-1,-1.069712266E-1
3.972473750E1,1.171691895E0,-8.663116097E-1,1.905550510E-1
3.974473750E1,9.638929963E-1,-1.232778430E0,7.740360498E-1
3.976473750E1,9.446245432E-1,-1.411831737E0,7.513642311E-1
3.978473750E1,1.515993029E-1,4.265759289E-1,3.033382259E-2
3.980473750E1,6.732782125E-1,1.426283121E-1,4.273787737E-1
3.982473750E1,1.313796639E0,-1.162668586E0,1.207418740E-1
3.984473750E1,1.351809859E0,-1.918081880E0,6.232570857E-2
3.986473750E1,1.138600469E0,-1.142911434E0,-1.853888780E-1
3.988473750E1,1.350588083E0,3.661875427E-1,-3.812497258E-1
3.990473750E1,1.687698483E0,9.494591355E-1,-4.257905185E-1
3.992473750E1,1.617309332E0,9.369450808E-1,-3.896273077E-1
3.994473750E1,1.003180385E0,-3.893829584E-1,-4.470835328E-1
3.996473750E1,6.194871664E-1,-1.460386753E0,-4.881511331E-1
3.998473750E1,5.793445706E-1,-1.076606393E0,-3.164107502E-1
4.000473750E1,5.219407082E-1,-4.418824613E-1,-1.437104046E-1
4.002473750E1,4.320911467E-1,-6.649704650E-3,-6.997025013E-2
4.004473750E1,2.241002768E-1,2.082875967E-1,-8.553858846E-2
